#isoforms=['exon:trans3:3_exon:trans3:2_exon:trans3:1','exon:trans2:3_exon:trans2:2_exon:trans2:1']	exon_lens=('exon:trans3:3',300),('exon:trans3:2',500),('exon:trans3:1',250),('exon:trans2:3',300),('exon:trans2:2',600),('exon:trans2:1',250)	iters=5000	burn_in=500	lag=10	percent_accept=75.40	proposal_type=drift	counts=(0,0):11,(0,1):1683,(1,0):171,(1,1):1005	assigned_counts=0:270,1:2589	chrom=test1	strand=-	mRNA_starts=3000,3000	mRNA_ends=5299,5299
sampled_psi	log_score
0.1194,0.8806	-20793.05
0.1035,0.8965	-20768.67
0.1044,0.8956	-20770.78
0.1151,0.8849	-20784.07
0.1035,0.8965	-20772.99
0.1089,0.8911	-20787.67
0.1144,0.8856	-20777.83
0.1118,0.8882	-20777.41
0.1029,0.8971	-20764.38
0.1025,0.8975	-20809.98
0.1064,0.8936	-20753.72
0.1102,0.8898	-20796.05
0.1112,0.8888	-20791.89
0.1148,0.8852	-20749.30
0.1030,0.8970	-20770.87
0.0922,0.9078	-20739.30
0.0992,0.9008	-20747.14
0.1062,0.8938	-20770.74
0.1060,0.8940	-20777.14
0.1127,0.8873	-20779.60
0.1108,0.8892	-20802.29
0.1011,0.8989	-20760.16
0.1126,0.8874	-20827.07
0.1048,0.8952	-20736.45
0.1185,0.8815	-20758.75
0.0987,0.9013	-20782.59
0.1108,0.8892	-20741.89
0.1094,0.8906	-20840.09
0.1075,0.8925	-20743.26
0.1055,0.8945	-20785.71
0.1024,0.8976	-20757.90
0.1247,0.8753	-20831.69
0.1257,0.8743	-20808.60
0.1122,0.8878	-20765.06
0.1131,0.8869	-20814.67
0.1197,0.8803	-20803.11
0.1143,0.8857	-20796.23
0.1308,0.8692	-20802.94
0.1083,0.8917	-20796.11
0.1168,0.8832	-20800.59
0.1115,0.8885	-20829.26
0.1109,0.8891	-20804.37
0.1073,0.8927	-20787.72
0.1109,0.8891	-20783.56
0.1135,0.8865	-20796.16
0.1183,0.8817	-20828.96
0.1002,0.8998	-20755.86
0.1032,0.8968	-20788.15
0.1165,0.8835	-20826.90
0.0988,0.9012	-20760.44
0.1027,0.8973	-20708.05
0.1114,0.8886	-20766.98
0.1155,0.8845	-20808.58
0.1013,0.8987	-20810.36
0.1020,0.8980	-20788.37
0.1070,0.8930	-20779.24
0.1224,0.8776	-20841.16
0.0960,0.9040	-20761.01
0.1124,0.8876	-20810.55
0.0991,0.9009	-20771.44
0.0995,0.9005	-20764.74
0.1100,0.8900	-20810.68
0.1063,0.8937	-20826.11
0.1079,0.8921	-20781.35
0.1125,0.8875	-20783.70
0.0923,0.9077	-20730.15
0.0995,0.9005	-20727.30
0.1152,0.8848	-20788.18
0.1090,0.8910	-20785.57
0.1125,0.8875	-20771.32
0.1112,0.8888	-20791.89
0.0981,0.9019	-20711.75
0.1092,0.8908	-20791.87
0.1080,0.8920	-20781.35
0.1028,0.8972	-20766.56
0.1148,0.8852	-20788.10
0.1129,0.8871	-20802.30
0.1163,0.8837	-20768.09
0.1092,0.8908	-20779.28
0.1106,0.8894	-20779.37
0.0990,0.9010	-20751.58
0.1186,0.8814	-20800.89
0.1196,0.8804	-20789.11
0.1196,0.8804	-20777.14
0.0946,0.9054	-20786.25
0.1089,0.8911	-20764.55
0.1089,0.8911	-20758.25
0.0932,0.9068	-20741.35
0.1115,0.8885	-20810.59
0.1220,0.8780	-20791.78
0.0962,0.9038	-20731.83
0.1081,0.8919	-20787.69
0.1170,0.8830	-20828.92
0.0991,0.9009	-20791.31
0.0992,0.9008	-20738.32
0.1193,0.8807	-20809.02
0.0986,0.9014	-20718.43
0.1128,0.8872	-20756.92
0.1027,0.8973	-20766.56
0.1040,0.8960	-20695.42
0.1048,0.8952	-20783.63
0.1279,0.8721	-20815.11
0.1138,0.8862	-20802.34
0.0972,0.9028	-20783.00
0.1151,0.8849	-20757.56
0.0962,0.9038	-20754.24
0.1010,0.8990	-20760.17
0.1028,0.8972	-20781.72
0.1170,0.8830	-20766.26
0.1102,0.8898	-20791.87
0.1109,0.8891	-20791.88
0.0980,0.9020	-20771.68
0.1052,0.8948	-20800.73
0.0899,0.9101	-20770.09
0.1088,0.8912	-20787.67
0.1073,0.8927	-20781.36
0.1124,0.8876	-20810.56
0.1044,0.8956	-20785.82
0.1123,0.8877	-20771.28
0.0914,0.9086	-20751.00
0.1073,0.8927	-20726.28
0.1126,0.8874	-20783.71
0.1048,0.8952	-20779.35
0.0970,0.9030	-20742.92
0.1203,0.8797	-20825.12
0.1014,0.8986	-20779.77
0.1038,0.8962	-20751.41
0.1194,0.8806	-20795.06
0.0942,0.9058	-20738.87
0.0988,0.9012	-20782.55
0.1154,0.8846	-20769.88
0.0995,0.9005	-20733.91
0.1135,0.8865	-20779.71
0.1136,0.8864	-20783.84
0.1093,0.8907	-20781.38
0.1052,0.8948	-20805.00
0.1076,0.8924	-20749.62
0.1017,0.8983	-20812.39
0.0996,0.9004	-20773.54
0.1073,0.8927	-20758.06
0.1124,0.8876	-20835.35
0.1040,0.8960	-20770.80
0.1052,0.8948	-20792.15
0.1084,0.8916	-20779.25
0.1107,0.8893	-20791.88
0.0926,0.9074	-20757.47
0.1146,0.8854	-20845.33
0.1039,0.8961	-20760.03
0.1127,0.8873	-20783.72
0.1149,0.8851	-20788.13
0.1028,0.8972	-20751.39
0.1034,0.8966	-20760.04
0.1037,0.8963	-20742.78
0.1013,0.8987	-20755.78
0.1025,0.8975	-20734.03
0.1108,0.8892	-20768.98
0.0985,0.9015	-20736.13
0.1107,0.8893	-20825.21
0.1009,0.8991	-20786.43
0.1140,0.8860	-20790.05
0.1147,0.8853	-20800.36
0.0946,0.9054	-20781.71
0.1172,0.8828	-20774.41
0.1091,0.8909	-20770.87
0.1050,0.8950	-20740.76
0.1156,0.8844	-20792.30
0.1053,0.8947	-20755.77
0.1002,0.8998	-20784.41
0.1148,0.8852	-20781.98
0.1111,0.8889	-20823.08
0.1037,0.8963	-20738.47
0.1196,0.8804	-20813.07
0.1020,0.8980	-20764.44
0.1089,0.8911	-20796.08
0.0952,0.9048	-20776.99
0.1037,0.8963	-20775.13
0.1155,0.8845	-20812.65
0.1041,0.8959	-20796.63
0.1097,0.8903	-20793.96
0.0915,0.9085	-20746.40
0.1139,0.8861	-20783.89
0.1015,0.8985	-20779.76
0.1049,0.8951	-20775.05
0.1006,0.8994	-20749.26
0.1079,0.8921	-20787.69
0.1005,0.8995	-20797.48
0.1114,0.8886	-20771.13
0.0983,0.9017	-20769.39
0.0992,0.9008	-20758.17
0.0954,0.9046	-20756.65
0.1168,0.8832	-20810.72
0.1049,0.8951	-20760.04
0.1116,0.8884	-20777.39
0.0921,0.9079	-20773.65
0.1048,0.8952	-20760.04
0.1016,0.8984	-20784.10
0.1047,0.8953	-20779.35
0.1132,0.8868	-20781.72
0.1071,0.8929	-20811.05
0.1065,0.8935	-20736.71
0.1119,0.8881	-20814.71
0.0984,0.9016	-20771.58
0.1125,0.8875	-20756.84
0.1094,0.8906	-20802.35
0.1114,0.8886	-20793.98
0.1025,0.8975	-20738.37
0.1037,0.8963	-20781.60
0.1121,0.8879	-20758.82
0.1153,0.8847	-20804.49
0.1130,0.8870	-20814.67
0.1184,0.8816	-20822.94
0.1043,0.8957	-20766.48
0.1078,0.8922	-20751.77
0.1140,0.8860	-20759.29
0.1187,0.8813	-20800.91
0.1064,0.8936	-20757.97
0.1000,0.9000	-20762.47
0.1029,0.8971	-20775.21
0.1031,0.8969	-20749.23
0.1057,0.8943	-20747.26
0.1268,0.8732	-20822.49
0.1172,0.8828	-20800.65
0.1087,0.8913	-20770.84
0.1087,0.8913	-20796.09
0.0923,0.9077	-20762.13
0.1125,0.8875	-20779.58
0.1219,0.8781	-20801.64
0.1161,0.8839	-20782.25
0.0996,0.9004	-20744.92
0.1060,0.8940	-20751.55
0.0942,0.9058	-20786.40
0.1110,0.8890	-20810.61
0.1089,0.8911	-20775.06
0.0992,0.9008	-20762.58
0.1068,0.8932	-20768.63
0.1011,0.8989	-20773.28
0.1153,0.8847	-20782.07
0.1133,0.8867	-20798.20
0.1135,0.8865	-20839.32
0.1058,0.8942	-20764.34
0.1035,0.8965	-20749.24
0.1004,0.8996	-20760.23
0.1108,0.8892	-20766.89
0.1047,0.8953	-20747.16
0.1062,0.8938	-20775.00
0.1105,0.8895	-20804.39
0.1186,0.8814	-20790.86
0.0943,0.9057	-20781.85
0.1076,0.8924	-20764.43
0.1093,0.8907	-20768.79
0.0968,0.9032	-20725.09
0.1101,0.8899	-20816.95
0.1099,0.8901	-20802.33
0.0973,0.9027	-20716.16
0.1019,0.8981	-20768.81
0.1126,0.8874	-20787.84
0.1080,0.8920	-20791.91
0.1160,0.8840	-20792.37
0.1131,0.8869	-20798.19
0.1050,0.8950	-20768.61
0.1220,0.8780	-20809.56
0.1021,0.8979	-20757.91
0.1101,0.8899	-20768.88
0.1053,0.8947	-20787.86
0.1186,0.8814	-20780.83
0.1019,0.8981	-20764.45
0.1116,0.8884	-20818.88
0.1251,0.8749	-20820.09
0.1119,0.8881	-20785.71
0.1087,0.8913	-20802.40
0.1214,0.8786	-20815.35
0.1053,0.8947	-20796.42
0.1048,0.8952	-20787.92
0.1062,0.8938	-20760.09
0.1006,0.8994	-20782.12
0.1102,0.8898	-20810.66
0.1202,0.8798	-20775.34
0.0997,0.9003	-20749.31
0.0956,0.9044	-20716.17
0.1038,0.8962	-20792.36
0.1215,0.8785	-20797.57
0.1185,0.8815	-20822.95
0.1062,0.8938	-20762.22
0.1029,0.8971	-20781.70
0.0932,0.9068	-20750.46
0.1169,0.8831	-20790.50
0.1043,0.8957	-20792.29
0.1176,0.8824	-20804.75
0.0900,0.9100	-20753.83
0.1083,0.8917	-20800.33
0.0996,0.9004	-20764.73
0.1145,0.8855	-20771.71
0.1081,0.8919	-20764.47
0.1266,0.8734	-20816.62
0.0917,0.9083	-20755.50
0.1179,0.8821	-20796.75
0.1131,0.8869	-20779.66
0.1129,0.8871	-20767.25
0.1006,0.8994	-20758.02
0.1107,0.8893	-20785.63
0.1076,0.8924	-20777.12
0.1098,0.8902	-20789.77
0.0955,0.9045	-20758.88
0.0974,0.9026	-20745.10
0.1055,0.8945	-20753.64
0.1045,0.8955	-20777.22
0.1162,0.8838	-20798.49
0.1033,0.8967	-20779.49
0.1114,0.8886	-20785.67
0.1104,0.8896	-20762.66
0.1034,0.8966	-20755.72
0.1036,0.8964	-20775.14
0.1148,0.8852	-20818.75
0.0979,0.9021	-20800.57
0.1017,0.8983	-20766.65
0.1026,0.8974	-20790.42
0.1038,0.8962	-20747.10
0.1083,0.8917	-20743.42
0.1127,0.8873	-20785.79
0.1170,0.8830	-20802.65
0.1043,0.8957	-20796.59
0.1088,0.8912	-20789.78
0.1036,0.8964	-20768.67
0.1119,0.8881	-20802.28
0.1097,0.8903	-20766.74
0.1119,0.8881	-20748.42
0.0985,0.9015	-20787.07
0.1130,0.8870	-20775.52
0.1094,0.8906	-20796.06
0.1054,0.8946	-20766.47
0.0990,0.9010	-20722.87
0.0980,0.9020	-20751.70
0.0926,0.9074	-20793.98
0.1135,0.8865	-20814.66
0.1121,0.8879	-20771.24
0.1092,0.8908	-20796.07
0.1156,0.8844	-20780.09
0.1006,0.8994	-20749.26
0.1069,0.8931	-20772.88
0.1130,0.8870	-20785.82
0.0987,0.9013	-20753.82
0.1142,0.8858	-20798.27
0.1188,0.8812	-20832.99
0.1083,0.8917	-20753.95
0.1084,0.8916	-20789.79
0.1061,0.8939	-20755.82
0.1001,0.8999	-20758.06
0.1150,0.8850	-20808.55
0.1129,0.8871	-20800.24
0.1086,0.8914	-20806.62
0.1073,0.8927	-20785.60
0.0938,0.9062	-20738.94
0.1086,0.8914	-20764.52
0.1071,0.8929	-20758.03
0.1102,0.8898	-20764.71
0.1069,0.8931	-20745.28
0.0976,0.9024	-20782.91
0.1089,0.8911	-20793.98
0.1112,0.8888	-20841.77
0.1139,0.8861	-20771.57
0.1014,0.8986	-20810.30
0.1135,0.8865	-20761.22
0.1018,0.8982	-20771.00
0.1099,0.8901	-20791.87
0.1182,0.8818	-20810.86
0.1108,0.8892	-20787.72
0.1029,0.8971	-20727.57
0.1130,0.8870	-20767.27
0.1023,0.8977	-20747.05
0.1091,0.8909	-20762.48
0.1021,0.8979	-20775.31
0.1022,0.8978	-20794.84
0.1207,0.8793	-20825.16
0.1064,0.8936	-20740.95
0.1126,0.8874	-20761.02
0.1037,0.8963	-20783.76
0.1145,0.8855	-20814.66
0.0935,0.9065	-20732.19
0.1112,0.8888	-20783.58
0.1115,0.8885	-20789.83
0.1087,0.8913	-20840.29
0.1036,0.8964	-20772.98
0.0977,0.9023	-20778.41
0.0955,0.9045	-20725.16
0.1173,0.8827	-20790.58
0.1167,0.8833	-20790.46
0.1137,0.8863	-20769.49
0.1092,0.8908	-20777.18
0.1019,0.8981	-20725.28
0.0970,0.9030	-20767.46
0.1157,0.8843	-20812.66
0.1062,0.8938	-20789.91
0.1124,0.8876	-20816.76
0.1165,0.8835	-20835.00
0.0952,0.9048	-20722.94
0.0853,0.9147	-20699.23
0.1230,0.8770	-20796.03
0.1051,0.8949	-20730.06
0.1140,0.8860	-20806.45
0.1166,0.8834	-20747.93
0.1065,0.8935	-20813.28
0.1091,0.8909	-20802.37
0.1018,0.8982	-20740.51
0.1113,0.8887	-20779.44
0.1123,0.8877	-20785.75
0.1153,0.8847	-20808.57
0.0965,0.9035	-20734.05
0.1034,0.8966	-20757.88
0.0968,0.9032	-20765.30
0.1129,0.8871	-20734.27
0.1094,0.8906	-20775.09
0.1151,0.8849	-20782.03
0.0938,0.9062	-20738.94
0.0980,0.9020	-20751.70
0.1051,0.8949	-20777.18
0.1008,0.8992	-20777.70
0.1127,0.8873	-20822.93
0.0985,0.9015	-20722.85
0.0892,0.9108	-20747.22
0.1079,0.8921	-20779.24
0.1102,0.8898	-20745.91
0.1068,0.8932	-20768.63
0.1140,0.8860	-20800.30
0.1129,0.8871	-20816.73
0.1029,0.8971	-20751.39
0.1087,0.8913	-20789.78
0.1180,0.8820	-20808.83
0.1043,0.8957	-20762.18
0.1065,0.8935	-20772.87
0.1110,0.8890	-20773.15
0.1123,0.8877	-20800.22
0.1125,0.8875	-20791.96
0.1247,0.8753	-20825.83
0.0983,0.9017	-20793.75
0.1041,0.8959	-20777.25
0.0961,0.9039	-20734.09
0.1204,0.8796	-20803.26
0.0988,0.9012	-20773.71
0.1241,0.8759	-20790.54
0.1004,0.8996	-20727.34
0.1080,0.8920	-20796.13
0.1118,0.8882	-20814.72
0.1170,0.8830	-20810.73
0.1064,0.8936	-20777.13
0.1203,0.8797	-20803.22
0.1177,0.8823	-20742.34
0.1001,0.8999	-20762.46
0.1076,0.8924	-20775.01
0.1040,0.8960	-20764.34
0.1197,0.8803	-20847.00
0.1128,0.8872	-20794.05
0.1033,0.8967	-20762.20
0.1061,0.8939	-20800.57
0.1022,0.8978	-20753.56
0.1083,0.8917	-20787.68
0.1013,0.8987	-20773.25
0.1146,0.8854	-20790.13
0.1024,0.8976	-20747.05
0.1152,0.8848	-20802.44
0.0968,0.9032	-20745.19
0.1137,0.8863	-20790.02
0.1152,0.8848	-20759.63
0.1040,0.8960	-20755.72
0.1108,0.8892	-20735.66
0.1064,0.8936	-20751.59
0.1025,0.8975	-20740.54
0.1077,0.8923	-20758.10
0.1069,0.8931	-20719.79
0.0997,0.9003	-20751.51
0.1071,0.8929	-20772.88
0.1062,0.8938	-20787.78
0.1073,0.8927	-20781.36
0.1019,0.8981	-20740.52
0.1089,0.8911	-20768.76
0.0906,0.9094	-20725.93
0.1105,0.8895	-20791.87
0.1039,0.8961	-20768.65
0.1082,0.8918	-20787.68
0.1052,0.8948	-20787.87
0.1099,0.8901	-20773.04
0.1054,0.8946	-20779.30
0.1035,0.8965	-20794.57
0.1025,0.8975	-20762.24
0.1040,0.8960	-20772.95
0.1124,0.8876	-20777.49
0.1127,0.8873	-20781.66
0.1061,0.8939	-20781.40
0.1099,0.8901	-20768.86
0.1061,0.8939	-20796.32
0.1081,0.8919	-20779.24
0.1036,0.8964	-20762.19
0.1068,0.8932	-20764.38
0.0980,0.9020	-20745.04
0.1211,0.8789	-20811.33
0.1074,0.8926	-20806.77
0.1151,0.8849	-20808.55
0.1177,0.8823	-20784.63
0.1033,0.8967	-20764.36
0.1135,0.8865	-20775.60
0.1125,0.8875	-20777.51
0.1087,0.8913	-20785.57
0.1115,0.8885	-20798.13
0.1122,0.8878	-20787.81
0.1114,0.8886	-20783.60
0.1071,0.8929	-20779.24
0.0917,0.9083	-20721.10
0.1102,0.8898	-20785.60
0.1046,0.8954	-20764.33
0.1064,0.8936	-20785.64
0.0999,0.9001	-20718.52
0.1089,0.8911	-20796.08
0.0929,0.9071	-20782.43
0.1193,0.8807	-20755.04
0.1169,0.8831	-20766.23
0.0962,0.9038	-20756.49
0.1079,0.8921	-20751.78
0.1142,0.8858	-20765.49
0.1185,0.8815	-20782.82
0.1063,0.8937	-20815.45
0.1047,0.8953	-20779.35
0.1121,0.8879	-20806.42
0.1075,0.8925	-20760.19
0.1129,0.8871	-20775.51
0.1171,0.8829	-20822.86
0.1048,0.8952	-20781.48
0.1024,0.8976	-20777.44
0.1082,0.8918	-20775.03
0.1118,0.8882	-20783.63
0.1095,0.8905	-20791.87
0.0947,0.9053	-20720.72
0.1077,0.8923	-20789.81
0.1106,0.8894	-20787.71
0.1004,0.8996	-20758.04
0.1107,0.8893	-20754.37
0.1103,0.8897	-20833.62
0.0933,0.9067	-20725.41
0.1086,0.8914	-20796.10
0.1084,0.8916	-20772.93
0.1080,0.8920	-20741.24
0.1033,0.8967	-20757.88
0.1059,0.8941	-20753.67
0.0948,0.9052	-20754.56
0.0983,0.9017	-20762.75
0.0992,0.9008	-20782.43
0.1003,0.8997	-20753.66
0.1004,0.8996	-20764.61
0.1058,0.8942	-20740.86
0.0990,0.9010	-20738.33
0.1118,0.8882	-20827.15
0.1061,0.8939	-20794.18
0.1114,0.8886	-20800.21
0.1112,0.8888	-20756.55
0.0965,0.9035	-20747.46
0.0910,0.9090	-20767.25
0.1126,0.8874	-20791.97
0.1018,0.8982	-20770.99
0.1064,0.8936	-20792.02
0.1122,0.8878	-20785.74
0.1081,0.8919	-20789.79
0.1120,0.8880	-20775.36
0.1082,0.8918	-20741.27
0.1108,0.8892	-20800.21
0.1071,0.8929	-20796.21
0.1075,0.8925	-20785.59
0.1199,0.8801	-20793.18
0.1058,0.8942	-20792.09
0.1229,0.8771	-20807.81
0.0997,0.9003	-20758.12
0.1005,0.8995	-20766.79
0.1062,0.8938	-20770.74
0.1053,0.8947	-20764.33
0.1072,0.8928	-20760.17
0.1053,0.8947	-20755.77
0.1217,0.8783	-20797.62
0.1027,0.8973	-20755.72
0.1038,0.8962	-20729.85
0.0999,0.9001	-20788.88
0.1137,0.8863	-20792.07
0.1113,0.8887	-20773.19
0.1227,0.8773	-20817.59
0.1163,0.8837	-20832.98
0.1090,0.8910	-20745.65
0.1034,0.8966	-20755.72
0.1128,0.8872	-20752.79
0.1041,0.8959	-20792.32
0.1140,0.8860	-20794.15
0.1241,0.8759	-20790.53
0.1146,0.8854	-20786.04
0.0912,0.9088	-20746.47
0.1140,0.8860	-20771.59
0.1068,0.8932	-20779.25
0.1056,0.8944	-20789.97
0.0968,0.9032	-20803.26
0.1148,0.8852	-20773.82
0.1055,0.8945	-20813.50
0.1101,0.8899	-20798.14
0.1116,0.8884	-20793.98
0.0971,0.9029	-20756.30
0.1089,0.8911	-20760.35
0.1162,0.8838	-20782.26
0.0976,0.9024	-20807.37
0.0996,0.9004	-20727.30
0.1108,0.8892	-20781.47
0.1095,0.8905	-20775.10
0.1112,0.8888	-20762.79
0.1001,0.8999	-20755.87
0.1090,0.8910	-20775.07
0.0926,0.9074	-20752.91
0.1143,0.8857	-20790.08
0.1097,0.8903	-20808.62
0.1053,0.8947	-20787.86
0.1127,0.8873	-20791.98
0.1192,0.8808	-20823.01
0.1006,0.8994	-20707.63
0.0936,0.9064	-20741.26
0.0978,0.9022	-20716.18
0.1057,0.8943	-20736.58
0.1081,0.8919	-20798.24
0.1202,0.8798	-20833.07
0.1081,0.8919	-20831.99
0.1138,0.8862	-20790.03
0.0942,0.9058	-20779.63
0.1103,0.8897	-20745.94
0.1088,0.8912	-20812.92
0.1040,0.8960	-20788.02
0.1035,0.8965	-20790.26
0.1062,0.8938	-20757.96
0.1019,0.8981	-20779.69
0.1209,0.8791	-20793.44
0.1236,0.8764	-20829.53
0.1061,0.8939	-20736.64
0.1096,0.8904	-20787.68
0.1057,0.8943	-20792.10
0.0987,0.9013	-20782.56
0.1235,0.8765	-20815.79
0.1055,0.8945	-20772.88
0.0915,0.9085	-20714.25
0.0988,0.9012	-20764.87
0.1145,0.8855	-20798.30
0.1083,0.8917	-20762.38
0.1242,0.8758	-20839.41
0.1154,0.8846	-20788.21
0.0907,0.9093	-20769.70
0.1103,0.8897	-20771.00
0.1183,0.8817	-20782.77
0.1102,0.8898	-20787.69
0.1116,0.8884	-20775.31
0.1177,0.8823	-20816.85
0.1145,0.8855	-20826.93
0.1066,0.8934	-20796.26
0.0993,0.9007	-20751.54
0.1156,0.8844	-20802.48
0.1091,0.8909	-20796.07
0.1060,0.8940	-20779.27
0.1035,0.8965	-20762.20
0.1212,0.8788	-20777.68
0.1010,0.8990	-20795.14
0.1078,0.8922	-20760.22
0.0957,0.9043	-20747.61
0.1044,0.8956	-20781.53
0.1158,0.8842	-20794.37
0.1120,0.8880	-20812.64
0.0969,0.9031	-20731.78
0.1263,0.8737	-20839.75
0.0977,0.9023	-20738.40
0.1092,0.8908	-20772.98
0.1020,0.8980	-20755.74
0.1113,0.8887	-20779.43
0.1011,0.8989	-20749.24
0.1170,0.8830	-20790.51
0.1048,0.8952	-20770.76
0.1087,0.8913	-20785.57
0.1009,0.8991	-20753.62
0.0988,0.9012	-20784.75
0.1030,0.8970	-20766.54
0.1137,0.8863	-20785.91
0.1046,0.8954	-20755.74
0.0994,0.9006	-20749.33
0.1066,0.8934	-20772.87
0.1304,0.8696	-20814.13
0.1303,0.8697	-20797.01
0.1006,0.8994	-20747.07
0.1086,0.8914	-20808.73
0.0998,0.9002	-20773.49
0.0971,0.9029	-20722.85
0.1114,0.8886	-20769.06
0.0963,0.9037	-20716.15
0.1153,0.8847	-20778.00
0.1041,0.8959	-20764.34
0.0929,0.9071	-20750.54
0.1174,0.8826	-20822.88
0.1048,0.8952	-20779.34
0.1051,0.8949	-20762.19
0.0983,0.9017	-20742.79
0.0995,0.9005	-20773.56
0.1050,0.8950	-20781.47
0.1193,0.8807	-20765.03
0.1021,0.8979	-20729.65
0.1049,0.8951	-20798.63
0.0938,0.9062	-20770.71
0.0950,0.9050	-20777.03
0.1019,0.8981	-20744.87
0.1076,0.8924	-20747.51
0.1146,0.8854	-20796.26
0.0949,0.9051	-20759.04
0.1027,0.8973	-20794.74
0.1032,0.8968	-20762.20
0.1035,0.8965	-20751.40
0.1065,0.8935	-20757.99
0.1135,0.8865	-20785.88
0.0945,0.9055	-20768.20
0.1175,0.8825	-20808.77
0.1010,0.8990	-20771.10
0.1039,0.8961	-20755.72
0.0969,0.9031	-20776.42
0.1126,0.8874	-20785.77
0.0959,0.9041	-20740.84
0.1057,0.8943	-20802.77
0.1080,0.8920	-20764.46
0.1073,0.8927	-20758.05
0.1037,0.8963	-20779.44
0.1058,0.8942	-20764.34
0.1038,0.8962	-20796.68
0.1142,0.8858	-20775.73
0.1082,0.8918	-20789.79
0.0953,0.9047	-20734.19
0.1083,0.8917	-20772.92
0.1015,0.8985	-20720.87
0.1162,0.8838	-20830.95
0.1036,0.8964	-20751.40
0.1022,0.8978	-20827.45
0.0960,0.9040	-20749.80
0.0922,0.9078	-20739.31
0.1081,0.8919	-20787.68
0.1037,0.8963	-20762.19
0.0995,0.9005	-20786.77
0.0968,0.9032	-20747.42
0.1027,0.8973	-20755.72
0.0916,0.9084	-20762.43
0.1019,0.8981	-20766.63
0.1118,0.8882	-20793.99
0.0974,0.9026	-20762.93
0.0931,0.9069	-20743.64
0.1086,0.8914	-20815.04
0.1118,0.8882	-20814.72
0.0896,0.9104	-20758.63
0.1019,0.8981	-20770.98
0.0966,0.9034	-20758.62
0.0969,0.9031	-20713.92
0.1041,0.8959	-20781.56
0.1110,0.8890	-20769.01
0.0910,0.9090	-20705.12
0.1066,0.8934	-20800.51
0.1091,0.8909	-20775.07
0.1083,0.8917	-20764.49
0.1087,0.8913	-20817.14
0.1078,0.8922	-20762.33
0.1022,0.8978	-20747.04
0.1122,0.8878	-20758.86
0.1008,0.8992	-20753.62
0.1105,0.8895	-20793.96
0.1172,0.8828	-20760.28
0.1071,0.8929	-20745.31
0.1095,0.8905	-20779.29
0.0941,0.9059	-20750.22
0.1127,0.8873	-20771.35
0.0991,0.9009	-20784.68
0.1080,0.8920	-20821.46
0.1027,0.8973	-20779.57
0.1020,0.8980	-20770.97
0.1159,0.8841	-20804.55
0.1085,0.8915	-20785.57
0.1145,0.8855	-20775.80
0.1095,0.8905	-20760.43
0.1079,0.8921	-20772.90
0.1029,0.8971	-20766.55
0.1120,0.8880	-20822.99
0.1154,0.8846	-20792.28
0.1046,0.8954	-20785.80
0.1065,0.8935	-20779.25
0.0998,0.9002	-20764.69
0.1192,0.8808	-20819.01
0.1045,0.8955	-20760.03
0.0977,0.9023	-20787.32
0.1142,0.8858	-20767.55
0.1069,0.8931	-20779.24
0.0999,0.9001	-20740.50
0.1053,0.8947	-20753.63
0.1091,0.8909	-20791.87
0.1138,0.8862	-20779.76
0.1077,0.8923	-20779.24
0.1189,0.8811	-20792.94
0.0964,0.9036	-20743.00
0.1046,0.8954	-20781.51
0.1098,0.8902	-20793.96
0.1122,0.8878	-20787.81
0.1023,0.8977	-20768.77
0.1177,0.8823	-20764.49
0.1008,0.8992	-20740.49
0.1049,0.8951	-20764.33
0.1053,0.8947	-20734.37
0.1215,0.8785	-20819.32
0.1005,0.8995	-20742.69
0.1067,0.8933	-20785.62
0.1035,0.8965	-20807.54
0.1154,0.8846	-20771.91
0.0958,0.9042	-20770.03
0.1066,0.8934	-20798.38
0.0951,0.9049	-20747.73
0.1102,0.8898	-20787.69
0.1061,0.8939	-20743.04
0.1099,0.8901	-20760.49
0.1129,0.8871	-20816.73
0.0989,0.9011	-20782.53
0.0963,0.9037	-20758.70
0.1200,0.8800	-20827.07
0.1075,0.8925	-20794.06
0.1012,0.8988	-20766.71
0.1090,0.8910	-20743.54
0.1123,0.8877	-20800.22
0.1055,0.8945	-20787.85
0.1117,0.8883	-20783.62
0.1127,0.8873	-20763.08
0.1070,0.8930	-20760.15
0.1066,0.8934	-20762.24
0.1063,0.8937	-20811.19
0.1090,0.8910	-20789.77
0.1094,0.8906	-20777.19
0.0986,0.9014	-20733.92
0.1072,0.8928	-20789.84
0.1022,0.8978	-20740.53
0.1053,0.8947	-20768.61
0.1028,0.8972	-20727.56
0.1073,0.8927	-20794.07
0.0993,0.9007	-20784.62
0.1056,0.8944	-20760.06
0.1115,0.8885	-20781.53
0.1214,0.8786	-20815.36
0.1156,0.8844	-20786.20
0.1089,0.8911	-20812.89
0.1081,0.8919	-20804.57
0.1065,0.8935	-20749.48
0.1068,0.8932	-20783.50
0.1166,0.8834	-20794.50
0.1130,0.8870	-20812.61
0.0985,0.9015	-20714.00
0.0987,0.9013	-20749.40
0.1113,0.8887	-20810.59
0.0978,0.9022	-20776.16
0.1087,0.8913	-20758.22
0.1016,0.8984	-20797.18
0.1211,0.8789	-20789.53
0.0970,0.9030	-20698.31
0.1151,0.8849	-20798.35
0.1170,0.8830	-20754.15
0.0979,0.9021	-20753.94
0.1058,0.8942	-20745.13
0.1082,0.8918	-20796.12
0.1099,0.8901	-20779.31
0.1107,0.8893	-20773.13
0.0991,0.9009	-20758.19
0.0928,0.9072	-20718.64
0.1107,0.8893	-20783.54
0.1125,0.8875	-20787.83
0.1134,0.8866	-20777.65
0.0996,0.9004	-20742.71
0.1078,0.8922	-20796.15
0.1042,0.8958	-20762.18
0.1202,0.8798	-20785.31
0.1104,0.8896	-20802.30
0.1094,0.8906	-20772.99
0.1004,0.8996	-20766.80
0.1181,0.8819	-20814.87
0.1059,0.8941	-20798.48
0.0981,0.9019	-20749.46
0.0979,0.9021	-20776.15
0.1149,0.8851	-20843.25
0.1184,0.8816	-20820.93
0.1037,0.8963	-20764.35
0.1053,0.8947	-20783.59
0.0961,0.9039	-20763.22
0.1073,0.8927	-20781.36
0.1118,0.8882	-20798.14
0.1044,0.8956	-20742.84
0.1022,0.8978	-20779.64
0.1095,0.8905	-20777.20
0.1047,0.8953	-20781.50
0.0928,0.9072	-20732.32
0.1006,0.8994	-20747.07
0.1066,0.8934	-20760.12
0.1082,0.8918	-20713.86
0.1178,0.8822	-20764.51
0.1054,0.8946	-20777.16
0.0964,0.9036	-20734.05
0.1146,0.8854	-20800.35
0.1036,0.8964	-20796.73
0.1042,0.8958	-20777.24
0.1108,0.8892	-20777.31
0.1172,0.8828	-20764.31
0.0896,0.9104	-20751.70
0.1026,0.8974	-20801.26
0.0972,0.9028	-20780.80
0.1208,0.8792	-20801.35
0.1120,0.8880	-20810.57
0.1106,0.8894	-20764.78
0.1132,0.8868	-20789.96
0.1195,0.8805	-20791.09
0.1063,0.8937	-20760.10
0.0986,0.9014	-20744.99
0.1083,0.8917	-20743.40
0.1003,0.8997	-20766.82
0.1158,0.8842	-20798.44
0.1006,0.8994	-20729.54
0.1147,0.8853	-20845.32
0.1086,0.8914	-20804.52
0.1130,0.8870	-20771.39
0.1038,0.8962	-20781.59
0.1100,0.8900	-20741.68
0.0951,0.9049	-20756.74
0.1062,0.8938	-20792.04
0.1137,0.8863	-20785.91
0.0989,0.9011	-20795.79
0.1139,0.8861	-20790.03
0.1112,0.8888	-20785.66
0.0955,0.9045	-20749.90
0.1021,0.8979	-20749.22
0.1035,0.8965	-20770.83
0.1059,0.8941	-20787.81
0.1014,0.8986	-20749.23
0.1141,0.8859	-20753.16
0.1039,0.8961	-20785.88
0.1111,0.8889	-20781.49
0.1137,0.8863	-20804.39
0.1086,0.8914	-20791.89
0.1081,0.8919	-20743.36
0.1102,0.8898	-20802.31
0.1060,0.8940	-20734.49
0.1102,0.8898	-20777.25
0.1063,0.8937	-20747.33
0.1081,0.8919	-20783.46
0.1065,0.8935	-20755.86
0.1018,0.8982	-20777.52
0.0906,0.9094	-20721.32
0.1038,0.8962	-20783.74
0.1127,0.8873	-20804.36
0.0985,0.9015	-20753.85
0.1088,0.8912	-20732.99
0.0964,0.9036	-20781.07
0.1077,0.8923	-20800.38
0.1250,0.8750	-20806.45
0.1020,0.8980	-20742.69
0.1064,0.8936	-20751.59
0.1223,0.8777	-20821.44
0.1055,0.8945	-20777.16
0.1121,0.8879	-20791.94
0.1039,0.8961	-20740.64
0.1184,0.8816	-20772.76
0.1032,0.8968	-20766.53
0.1199,0.8801	-20797.16
0.1158,0.8842	-20796.41
0.1058,0.8942	-20717.38
0.1042,0.8958	-20768.64
0.0933,0.9067	-20750.41
0.1109,0.8891	-20796.05
0.1134,0.8866	-20771.47
0.1186,0.8814	-20822.96
0.1033,0.8967	-20755.72
0.1094,0.8906	-20787.68
0.1184,0.8816	-20798.85
0.1189,0.8811	-20794.94
0.1008,0.8992	-20753.62
0.1099,0.8901	-20773.04
0.1064,0.8936	-20755.85
0.1062,0.8938	-20764.35
0.1047,0.8953	-20787.93
0.1202,0.8798	-20789.29
0.1000,0.9000	-20744.89
0.1073,0.8927	-20800.43
0.1010,0.8990	-20727.38
0.1090,0.8910	-20772.97
0.1076,0.8924	-20798.27
0.1195,0.8805	-20815.05
0.1017,0.8983	-20738.33
0.1117,0.8883	-20808.50
0.0999,0.9001	-20780.07
0.1139,0.8861	-20767.48
0.1135,0.8865	-20798.22
0.1132,0.8868	-20792.02
0.1047,0.8953	-20772.91
0.1034,0.8966	-20775.16
0.1045,0.8955	-20740.70
0.1032,0.8968	-20773.01
0.1151,0.8849	-20784.07
0.1187,0.8813	-20822.97
0.1201,0.8799	-20809.17
0.0943,0.9057	-20736.59
0.1138,0.8862	-20835.18
0.1073,0.8927	-20749.59
0.1008,0.8992	-20775.51
0.1190,0.8810	-20808.97
0.1015,0.8985	-20762.31
0.1076,0.8924	-20770.78
0.1145,0.8855	-20792.15
0.1191,0.8809	-20807.00
0.1034,0.8966	-20783.80
0.1040,0.8960	-20794.49
0.0993,0.9007	-20749.34
0.1036,0.8964	-20775.14
0.1179,0.8821	-20802.79
0.1109,0.8891	-20766.91
0.1093,0.8907	-20779.28
0.1053,0.8947	-20772.89
0.1030,0.8970	-20796.85
0.1021,0.8979	-20757.91
0.1090,0.8910	-20779.27
0.1084,0.8916	-20787.68
0.1118,0.8882	-20798.14
0.1141,0.8859	-20798.26
0.1156,0.8844	-20800.45
0.1056,0.8944	-20749.38
0.1015,0.8985	-20753.59
0.1168,0.8832	-20782.39
0.0993,0.9007	-20751.55
0.1248,0.8752	-20816.12
0.1051,0.8949	-20779.32
0.1011,0.8989	-20777.63
0.1078,0.8922	-20777.13
0.1195,0.8805	-20785.10
0.0950,0.9050	-20722.95
0.1162,0.8838	-20798.49
0.1051,0.8949	-20732.20
0.1031,0.8969	-20794.66
0.1109,0.8891	-20791.88
0.1025,0.8975	-20783.93
0.0995,0.9005	-20766.94
0.1169,0.8831	-20808.70
0.1028,0.8972	-20799.04
0.1071,0.8929	-20753.79
0.1174,0.8826	-20794.63
0.1049,0.8951	-20749.32
0.0912,0.9088	-20741.90
0.1111,0.8889	-20798.13
0.1034,0.8966	-20753.56
0.1195,0.8805	-20817.05
0.1165,0.8835	-20798.53
0.1041,0.8959	-20742.81
0.0993,0.9007	-20711.86
0.1122,0.8878	-20767.12
0.1015,0.8985	-20768.85
0.1134,0.8866	-20816.72
0.1196,0.8804	-20807.07
0.0906,0.9094	-20746.69
0.1043,0.8957	-20790.14
0.1020,0.8980	-20738.34
0.0970,0.9030	-20778.63
0.1060,0.8940	-20766.48
0.1176,0.8824	-20798.71
0.1002,0.8998	-20749.28
0.1120,0.8880	-20783.65
0.1014,0.8986	-20753.59
0.1174,0.8826	-20845.07
0.1001,0.8999	-20760.26
0.1018,0.8982	-20781.89
0.1009,0.8991	-20784.25
0.1117,0.8883	-20781.55
0.1063,0.8937	-20732.43
0.1088,0.8912	-20796.09
0.1171,0.8829	-20788.53
0.1040,0.8960	-20744.95
0.1118,0.8882	-20773.27
0.1132,0.8868	-20759.08
0.1061,0.8939	-20757.96
0.1160,0.8840	-20794.40
0.1186,0.8814	-20798.89
0.1019,0.8981	-20770.98
0.1048,0.8952	-20766.47
0.0954,0.9046	-20695.92
0.1039,0.8961	-20736.33
0.1091,0.8909	-20793.97
0.1064,0.8936	-20751.60
0.0943,0.9057	-20766.01
0.1104,0.8896	-20762.66
0.1101,0.8899	-20783.51
0.1060,0.8940	-20762.21
0.1076,0.8924	-20766.55
0.0997,0.9003	-20806.51
0.0930,0.9070	-20730.01
0.1051,0.8949	-20785.75
0.1011,0.8989	-20777.64
0.1078,0.8922	-20777.13
0.1067,0.8933	-20758.00
0.1091,0.8909	-20800.27
0.1095,0.8905	-20773.01
0.1160,0.8840	-20761.92
0.1060,0.8940	-20772.87
0.1037,0.8963	-20764.35
0.0997,0.9003	-20771.31
0.1072,0.8928	-20764.40
0.1105,0.8895	-20808.56
0.1149,0.8851	-20812.63
0.1182,0.8818	-20810.87
0.1004,0.8996	-20705.41
0.1109,0.8891	-20800.21
0.1067,0.8933	-20772.87
0.1050,0.8950	-20764.33
0.1057,0.8943	-20768.61
0.1061,0.8939	-20749.43
0.1088,0.8912	-20747.72
0.0943,0.9057	-20759.21
0.1031,0.8969	-20775.18
0.1122,0.8878	-20752.65
0.1065,0.8935	-20745.22
0.1053,0.8947	-20751.49
0.1094,0.8906	-20791.87
0.0907,0.9093	-20746.64
0.0978,0.9022	-20778.39
0.1121,0.8879	-20798.14
0.1062,0.8938	-20787.78
0.1084,0.8916	-20772.93
0.0995,0.9005	-20736.11
0.1001,0.8999	-20725.13
0.1130,0.8870	-20794.06
0.1058,0.8942	-20766.47
0.1101,0.8899	-20827.40
0.1128,0.8872	-20779.61
0.1122,0.8878	-20779.54
0.0999,0.9001	-20764.69
0.1151,0.8849	-20806.52
0.0999,0.9001	-20793.25
0.1203,0.8797	-20809.20
0.1101,0.8899	-20750.08
0.1159,0.8841	-20782.19
0.0993,0.9007	-20736.11
0.1094,0.8906	-20796.06
0.0997,0.9003	-20740.51
0.1225,0.8775	-20803.76
0.0919,0.9081	-20718.78
0.1081,0.8919	-20781.35
0.1096,0.8904	-20760.44
0.1177,0.8823	-20828.94
0.1054,0.8946	-20725.83
0.1223,0.8777	-20813.55
0.0877,0.9123	-20719.73
0.1090,0.8910	-20789.77
0.1203,0.8797	-20823.13
0.1166,0.8834	-20770.20
0.1010,0.8990	-20749.24
0.0997,0.9003	-20749.31
0.0913,0.9087	-20732.67
0.1043,0.8957	-20787.98
0.1162,0.8838	-20766.02
0.1196,0.8804	-20797.09
0.1045,0.8955	-20772.92
0.1075,0.8925	-20768.66
0.1053,0.8947	-20742.93
0.1085,0.8915	-20770.83
0.1078,0.8922	-20796.15
0.1130,0.8870	-20754.92
0.1054,0.8946	-20760.05
0.1185,0.8815	-20798.86
0.1047,0.8953	-20770.76
0.1125,0.8875	-20779.57
0.0936,0.9064	-20745.80
0.1134,0.8866	-20837.28
0.1214,0.8786	-20805.46
0.0956,0.9044	-20743.13
0.1142,0.8858	-20804.42
0.1057,0.8943	-20794.23
0.1006,0.8994	-20714.20
0.1110,0.8890	-20731.56
0.1146,0.8854	-20796.26
0.0943,0.9057	-20784.11
0.1152,0.8848	-20775.95
0.0961,0.9039	-20758.75
0.0986,0.9014	-20793.68
0.1116,0.8884	-20852.06
0.1164,0.8836	-20770.14
0.0943,0.9057	-20732.07
0.1047,0.8953	-20820.12
0.0920,0.9080	-20702.73
0.1092,0.8908	-20777.18
0.1122,0.8878	-20773.33
0.1164,0.8836	-20808.65
0.0963,0.9037	-20749.73
0.1133,0.8867	-20787.92
0.1040,0.8960	-20790.18
0.0945,0.9055	-20774.96
0.1017,0.8983	-20764.47
0.1046,0.8954	-20775.06
0.0927,0.9073	-20752.87
0.1059,0.8941	-20789.95
0.0951,0.9049	-20767.99
0.0920,0.9080	-20755.40
0.1017,0.8983	-20753.58
0.1157,0.8843	-20822.83
0.1005,0.8995	-20775.55
0.1040,0.8960	-20783.72
0.1026,0.8974	-20775.24
0.1155,0.8845	-20824.87
0.1012,0.8988	-20744.86
0.0995,0.9005	-20751.53
0.1066,0.8934	-20745.24
0.1053,0.8947	-20779.31
0.1023,0.8977	-20764.42
0.0997,0.9003	-20762.51
0.0992,0.9008	-20749.35
0.1102,0.8898	-20750.09
0.1017,0.8983	-20753.58
0.1119,0.8881	-20779.50
0.1040,0.8960	-20753.57
0.1050,0.8950	-20753.61
0.1093,0.8907	-20783.48
0.1018,0.8982	-20749.22
0.1036,0.8964	-20777.30
0.1173,0.8827	-20810.76
0.1211,0.8789	-20795.47
0.1104,0.8896	-20768.92
0.0994,0.9006	-20764.76
0.1022,0.8978	-20794.85
0.0985,0.9015	-20758.27
0.0987,0.9013	-20775.95
0.1051,0.8949	-20775.04
0.1113,0.8887	-20758.67
0.1097,0.8903	-20731.13
0.1124,0.8876	-20763.04
0.1175,0.8825	-20814.81
0.0992,0.9008	-20764.79
0.1108,0.8892	-20798.13
0.1038,0.8962	-20798.82
0.1110,0.8890	-20750.28
0.1114,0.8886	-20781.52
0.1089,0.8911	-20804.49
0.1013,0.8987	-20747.05
0.1051,0.8949	-20745.05
0.1027,0.8973	-20768.73
0.1083,0.8917	-20751.84
0.1131,0.8869	-20802.31
0.1048,0.8952	-20764.33
0.1043,0.8957	-20777.23
0.0959,0.9041	-20745.33
0.1044,0.8956	-20768.63
0.1037,0.8963	-20792.38
0.1059,0.8941	-20745.14
0.1001,0.8999	-20749.28
0.1109,0.8891	-20808.54
0.1041,0.8959	-20768.64
0.1011,0.8989	-20740.50
0.1138,0.8862	-20779.76
0.0988,0.9012	-20789.19
0.1037,0.8963	-20712.60
0.1025,0.8975	-20799.13
0.1046,0.8954	-20749.30
0.1017,0.8983	-20751.40
0.1070,0.8930	-20764.39
0.1035,0.8965	-20757.88
0.1049,0.8951	-20751.46
0.1042,0.8958	-20762.18
0.1173,0.8827	-20810.77
0.1220,0.8780	-20815.47
0.1211,0.8789	-20783.58
0.0967,0.9033	-20754.14
0.1032,0.8968	-20749.23
0.0919,0.9081	-20760.01
0.1018,0.8982	-20768.81
0.1192,0.8808	-20797.00
0.1166,0.8834	-20820.82
0.1066,0.8934	-20779.25
0.1010,0.8990	-20760.17
0.0986,0.9014	-20769.32
0.0982,0.9018	-20780.50
0.1091,0.8909	-20791.87
0.1005,0.8995	-20738.30
0.1017,0.8983	-20751.40
0.1016,0.8984	-20738.33
0.0865,0.9135	-20760.22
0.0966,0.9034	-20765.34
0.1207,0.8793	-20829.13
0.0977,0.9023	-20740.62
0.1118,0.8882	-20820.94
0.1016,0.8984	-20771.02
0.0942,0.9058	-20729.82
0.1023,0.8977	-20723.16
0.1199,0.8801	-20835.04
0.1074,0.8926	-20753.83
0.1064,0.8936	-20772.87
0.1149,0.8851	-20826.92
0.0966,0.9034	-20780.97
0.0950,0.9050	-20756.76
0.1045,0.8955	-20757.88
0.1068,0.8932	-20775.00
0.1035,0.8965	-20766.51
0.0978,0.9022	-20731.73
0.1022,0.8978	-20783.98
0.0899,0.9101	-20730.72
0.0946,0.9054	-20747.83
0.1103,0.8897	-20804.39
0.1173,0.8827	-20792.61
0.1057,0.8943	-20764.34
0.1152,0.8848	-20788.18
0.0999,0.9001	-20758.09
0.0970,0.9030	-20798.72
0.1007,0.8993	-20764.58
0.1194,0.8806	-20803.05
0.1074,0.8926	-20806.76
0.1024,0.8976	-20764.41
0.1168,0.8832	-20820.83
0.1019,0.8981	-20773.16
0.1042,0.8958	-20764.33
0.1132,0.8868	-20767.33
0.1083,0.8917	-20768.71
0.1090,0.8910	-20829.70
0.1098,0.8902	-20816.98
0.1052,0.8948	-20768.61
0.1099,0.8901	-20773.04
0.1183,0.8817	-20841.01
0.1125,0.8875	-20787.83
0.1101,0.8899	-20768.88
0.1109,0.8891	-20764.82
0.0994,0.9006	-20777.99
0.1116,0.8884	-20827.18
0.1144,0.8856	-20826.94
0.1151,0.8849	-20796.32
0.1020,0.8980	-20781.85
0.1146,0.8854	-20775.82
0.0859,0.9141	-20717.96
0.1011,0.8989	-20753.61
0.1005,0.8995	-20777.75
0.1028,0.8972	-20762.22
0.1013,0.8987	-20755.78
0.1106,0.8894	-20793.96
0.0945,0.9055	-20722.99
0.1068,0.8932	-20783.49
0.0957,0.9043	-20740.87
0.0919,0.9081	-20725.64
0.1080,0.8920	-20789.80
0.1048,0.8952	-20781.48
0.0908,0.9092	-20760.44
0.1126,0.8874	-20808.49
0.1151,0.8849	-20800.40
0.0937,0.9063	-20714.01
0.1155,0.8845	-20800.43
0.1129,0.8871	-20787.87
0.0914,0.9086	-20728.04
0.1140,0.8860	-20812.61
0.1197,0.8803	-20791.13
0.1044,0.8956	-20809.46
0.0961,0.9039	-20713.91
0.1046,0.8954	-20777.21
0.0954,0.9046	-20743.16
0.1149,0.8851	-20822.83
0.1005,0.8995	-20738.30
0.1052,0.8948	-20805.00
0.0985,0.9015	-20753.85
0.1118,0.8882	-20791.92
0.1072,0.8928	-20749.56
0.1096,0.8904	-20793.96
0.1091,0.8909	-20785.57
0.0966,0.9034	-20785.47
0.0962,0.9038	-20734.07
0.1205,0.8795	-20775.44
0.1201,0.8799	-20751.41
0.1033,0.8967	-20770.84
0.1129,0.8871	-20785.81
0.0951,0.9049	-20734.21
0.1031,0.8969	-20740.57
0.1157,0.8843	-20798.42
0.1133,0.8867	-20792.03
0.1076,0.8924	-20777.12
0.1011,0.8989	-20808.23
0.1038,0.8962	-20807.45
0.0934,0.9066	-20770.85
0.1211,0.8789	-20815.31
0.1072,0.8928	-20794.08
0.1137,0.8863	-20759.23
0.1078,0.8922	-20770.79
0.1173,0.8827	-20832.96
0.1033,0.8967	-20740.59
0.1135,0.8865	-20831.10
0.1186,0.8814	-20800.90
0.1093,0.8907	-20777.18
0.1007,0.8993	-20797.41
0.0995,0.9005	-20751.53
0.1161,0.8839	-20784.26
0.1149,0.8851	-20822.83
0.1132,0.8868	-20771.43
0.1058,0.8942	-20757.94
0.1130,0.8870	-20777.59
0.1034,0.8966	-20781.63
0.1066,0.8934	-20766.49
0.1225,0.8775	-20799.83
0.1044,0.8956	-20760.03
0.1051,0.8949	-20775.04
0.1250,0.8750	-20814.23
0.1107,0.8893	-20798.13
0.1201,0.8799	-20852.97
0.1038,0.8962	-20751.41
0.1077,0.8923	-20787.70
0.1112,0.8888	-20779.43
0.1269,0.8731	-20828.28
0.1041,0.8959	-20798.77
0.0939,0.9061	-20736.66
0.1040,0.8960	-20768.64
0.1142,0.8858	-20783.93
0.1161,0.8839	-20810.66
0.1381,0.8619	-20848.96
0.0993,0.9007	-20784.62
0.0981,0.9019	-20760.55
0.1113,0.8887	-20816.82
0.1169,0.8831	-20828.92
0.1083,0.8917	-20794.01
0.1144,0.8856	-20824.89
0.0981,0.9019	-20727.28
0.1060,0.8940	-20764.34
0.1037,0.8963	-20781.60
0.1122,0.8878	-20791.94
0.1041,0.8959	-20798.77
0.1134,0.8866	-20787.93
0.1026,0.8974	-20794.76
0.1058,0.8942	-20753.67
0.1034,0.8966	-20794.60
0.1098,0.8902	-20791.87
0.1033,0.8967	-20777.33
0.1246,0.8754	-20837.50
0.0938,0.9062	-20738.95
0.0971,0.9029	-20754.07
0.1000,0.9000	-20744.89
0.1068,0.8932	-20794.11
0.1074,0.8926	-20779.24
0.1181,0.8819	-20752.56
0.1016,0.8984	-20727.43
0.1059,0.8941	-20770.74
0.1117,0.8883	-20760.82
0.1038,0.8962	-20742.79
0.1058,0.8942	-20728.06
0.1163,0.8837	-20794.44
0.1065,0.8935	-20798.39
0.1058,0.8942	-20798.49
0.1030,0.8970	-20755.72
0.1090,0.8910	-20751.95
0.0946,0.9054	-20772.66
0.1189,0.8811	-20794.93
0.1040,0.8960	-20818.18
0.1095,0.8905	-20819.11
0.0968,0.9032	-20754.11
0.1064,0.8936	-20777.13
0.0945,0.9055	-20725.25
0.0952,0.9048	-20713.93
0.1020,0.8980	-20747.04
0.1074,0.8926	-20770.77
0.1076,0.8924	-20781.35
0.0993,0.9007	-20769.18
0.1106,0.8894	-20775.20
0.1088,0.8912	-20749.81
0.1054,0.8946	-20792.13
0.1153,0.8847	-20796.34
0.1055,0.8945	-20755.79
0.0997,0.9003	-20736.11
0.1084,0.8916	-20764.50
0.1007,0.8993	-20771.15
0.1004,0.8996	-20795.32
0.0993,0.9007	-20753.76
0.1018,0.8982	-20766.64
0.1081,0.8919	-20779.24
0.1005,0.8995	-20762.41
0.0993,0.9007	-20738.32
0.1098,0.8902	-20777.21
0.0938,0.9062	-20757.09
0.1021,0.8979	-20777.48
0.1056,0.8944	-20738.69
0.1156,0.8844	-20792.31
0.1129,0.8871	-20769.32
0.1070,0.8930	-20749.53
0.1021,0.8979	-20734.00
0.0992,0.9008	-20749.35
0.1093,0.8907	-20752.01
0.1189,0.8811	-20820.98
0.1086,0.8914	-20756.10
0.1015,0.8985	-20799.37
0.1111,0.8889	-20756.54
0.0973,0.9027	-20751.80
0.1149,0.8851	-20796.29
0.0989,0.9011	-20749.38
0.1134,0.8866	-20781.76
0.1135,0.8865	-20767.39
0.1052,0.8948	-20749.35
0.0959,0.9041	-20778.96
0.1144,0.8856	-20753.27
0.0956,0.9044	-20725.16
0.0939,0.9061	-20782.02
0.0941,0.9059	-20750.22
0.1119,0.8881	-20827.14
0.1165,0.8835	-20802.58
0.0986,0.9014	-20758.26
0.0958,0.9042	-20754.32
0.0975,0.9025	-20731.74
0.0971,0.9029	-20780.82
0.1185,0.8815	-20806.89
0.1086,0.8914	-20770.84
0.1018,0.8982	-20749.22
0.1049,0.8951	-20779.33
0.1033,0.8967	-20770.84
0.1031,0.8969	-20703.79
0.1120,0.8880	-20771.22
0.1103,0.8897	-20779.34
0.1186,0.8814	-20820.95
0.1099,0.8901	-20773.04
0.1153,0.8847	-20802.45
0.1069,0.8931	-20755.89
0.1100,0.8900	-20802.32
0.1198,0.8802	-20799.13
0.1063,0.8937	-20796.30
0.1194,0.8806	-20795.06
0.1146,0.8854	-20816.71
0.0998,0.9002	-20747.10
0.1050,0.8950	-20775.04
0.1075,0.8925	-20815.21
0.1036,0.8964	-20744.93
0.1192,0.8808	-20817.01
0.1055,0.8945	-20742.96
0.0910,0.9090	-20735.05
0.1074,0.8926	-20789.82
0.1136,0.8864	-20781.78
0.1028,0.8972	-20749.22
0.1127,0.8873	-20796.11
0.1152,0.8848	-20796.33
0.1160,0.8840	-20828.93
0.1112,0.8888	-20802.29
0.0997,0.9003	-20755.91
0.1073,0.8927	-20764.41
0.1146,0.8854	-20786.04
0.1181,0.8819	-20804.82
0.1078,0.8922	-20753.88
0.1058,0.8942	-20815.56
0.1017,0.8983	-20762.29
0.0970,0.9030	-20763.01
0.1097,0.8903	-20777.21
0.1103,0.8897	-20764.73
0.1066,0.8934	-20772.87
0.1126,0.8874	-20771.32
0.1029,0.8971	-20751.39
0.1017,0.8983	-20742.69
0.1139,0.8861	-20761.32
0.1049,0.8951	-20757.90
0.1144,0.8856	-20781.91
0.1122,0.8878	-20800.22
0.1042,0.8958	-20779.40
0.1001,0.8999	-20753.68
0.1183,0.8817	-20828.96
0.1046,0.8954	-20751.44
0.1071,0.8929	-20847.11
0.1181,0.8819	-20782.71
0.1187,0.8813	-20800.90
0.1168,0.8832	-20784.42
0.1147,0.8853	-20800.36
0.1235,0.8765	-20804.03
0.1064,0.8936	-20779.26
0.1046,0.8954	-20787.94
0.1050,0.8950	-20798.62
0.1218,0.8782	-20835.19
0.1038,0.8962	-20798.84
0.1162,0.8838	-20804.57
0.1052,0.8948	-20792.16
0.1026,0.8974	-20751.39
0.0998,0.9002	-20744.90
0.1055,0.8945	-20760.06
0.0905,0.9095	-20755.97
0.1164,0.8836	-20798.52
0.1083,0.8917	-20764.49
0.1123,0.8877	-20752.68
0.1008,0.8992	-20790.84
0.1009,0.8991	-20788.61
0.0990,0.9010	-20740.54
0.1066,0.8934	-20794.13
0.1125,0.8875	-20791.97
0.0952,0.9048	-20702.67
0.1074,0.8926	-20783.47
0.1067,0.8933	-20785.62
0.1073,0.8927	-20768.65
0.1044,0.8956	-20757.88
0.1200,0.8800	-20825.08
0.1111,0.8889	-20785.65
0.1016,0.8984	-20771.02
0.1178,0.8822	-20804.78
0.1001,0.8999	-20764.66
0.0988,0.9012	-20716.23
0.1191,0.8809	-20815.00
0.1216,0.8784	-20771.90
0.1062,0.8938	-20781.40
0.1103,0.8897	-20806.48
0.1154,0.8846	-20808.57
0.0978,0.9022	-20771.72
0.1168,0.8832	-20796.56
0.1082,0.8918	-20766.59
0.1068,0.8932	-20781.37
0.1118,0.8882	-20796.06
0.1055,0.8945	-20789.99
0.0972,0.9028	-20762.96
0.1257,0.8743	-20806.66
0.1106,0.8894	-20785.62
0.1118,0.8882	-20804.36
0.1115,0.8885	-20789.83
0.1006,0.8994	-20733.92
0.1009,0.8991	-20764.55
0.1124,0.8876	-20791.96
0.1078,0.8922	-20758.10
0.1037,0.8963	-20777.28
0.0960,0.9040	-20738.58
0.1043,0.8957	-20753.58
0.1178,0.8822	-20760.49
0.1164,0.8836	-20788.39
0.1056,0.8944	-20757.93
0.1103,0.8897	-20823.18
0.1061,0.8939	-20792.05
0.1064,0.8936	-20749.46
0.1107,0.8893	-20768.95
0.1117,0.8883	-20775.33
0.1122,0.8878	-20810.56
0.0949,0.9051	-20743.25
0.0991,0.9009	-20769.23
0.0981,0.9019	-20731.72
0.1055,0.8945	-20768.61
0.1130,0.8870	-20808.49
0.1136,0.8864	-20775.62
0.1016,0.8984	-20740.50
0.0901,0.9099	-20746.86
0.1090,0.8910	-20808.68
0.1112,0.8888	-20791.89
0.1060,0.8940	-20755.82
0.1091,0.8909	-20772.98
0.1101,0.8899	-20823.21
0.0930,0.9070	-20761.89
0.0984,0.9016	-20751.64
0.1245,0.8755	-20841.40
0.1064,0.8936	-20781.38
0.1022,0.8978	-20744.87
0.1051,0.8949	-20749.33
0.1022,0.8978	-20729.66
0.0895,0.9105	-20714.62
0.1241,0.8759	-20808.13
0.1015,0.8985	-20760.13
0.1010,0.8990	-20742.68
0.0939,0.9061	-20813.76
0.0989,0.9011	-20764.84
0.1028,0.8972	-20770.89
0.1206,0.8794	-20797.33
0.1052,0.8948	-20732.22
0.1048,0.8952	-20777.20
0.0958,0.9042	-20740.85
0.1051,0.8949	-20770.75
0.1159,0.8841	-20802.52
0.1073,0.8927	-20743.23
0.1065,0.8935	-20766.49
0.0972,0.9028	-20720.62
0.1016,0.8984	-20764.48
0.1046,0.8954	-20760.03
0.1021,0.8979	-20777.49
0.1087,0.8913	-20777.15
0.1164,0.8836	-20780.29
0.0973,0.9027	-20758.48
0.1108,0.8892	-20818.95
0.1067,0.8933	-20777.12
0.0972,0.9028	-20769.65
0.1138,0.8862	-20777.72
0.1099,0.8901	-20800.23
0.1026,0.8974	-20794.76
0.1078,0.8922	-20781.35
0.1200,0.8800	-20795.18
0.1093,0.8907	-20793.97
0.1031,0.8969	-20747.06
0.0994,0.9006	-20740.52
0.1080,0.8920	-20747.58
0.0954,0.9046	-20727.42
0.1069,0.8931	-20770.75
0.1120,0.8880	-20794.00
0.1052,0.8948	-20781.46
0.1005,0.8995	-20749.26
0.1066,0.8934	-20785.63
0.1023,0.8977	-20755.73
0.1149,0.8851	-20812.63
0.1163,0.8837	-20768.10
0.1154,0.8846	-20788.20
0.1033,0.8967	-20751.39
0.1056,0.8944	-20757.93
0.1042,0.8958	-20777.24
0.0925,0.9075	-20716.40
0.1051,0.8949	-20790.03
0.1120,0.8880	-20789.86
0.1122,0.8878	-20794.01
0.1039,0.8961	-20783.74
0.0988,0.9012	-20758.22
0.1008,0.8992	-20751.44
0.1044,0.8956	-20768.63
0.1135,0.8865	-20777.66
0.1074,0.8926	-20751.71
0.0960,0.9040	-20738.58
0.0987,0.9013	-20773.72
0.0970,0.9030	-20747.39
0.1071,0.8929	-20785.60
0.1036,0.8964	-20764.35
0.1096,0.8904	-20831.67
0.1056,0.8944	-20785.70
0.1137,0.8863	-20800.28
0.1183,0.8817	-20774.74
0.1057,0.8943	-20734.44
0.1051,0.8949	-20768.61
0.1118,0.8882	-20802.28
0.1145,0.8855	-20773.76
0.1034,0.8966	-20781.64
0.1082,0.8918	-20768.70
0.1053,0.8947	-20768.61
0.1080,0.8920	-20781.35
0.1001,0.8999	-20771.24
0.0989,0.9011	-20733.91
0.1092,0.8908	-20756.19
0.1042,0.8958	-20734.22
0.1249,0.8751	-20804.45
0.1097,0.8903	-20770.93
0.1053,0.8947	-20787.87
0.1086,0.8914	-20787.68
0.1004,0.8996	-20742.69
0.1124,0.8876	-20789.89
0.1279,0.8721	-20826.64
0.1079,0.8921	-20785.58
0.1122,0.8878	-20754.71
0.1067,0.8933	-20766.50
0.1007,0.8993	-20755.82
0.1056,0.8944	-20755.79
0.1096,0.8904	-20777.20
0.1023,0.8977	-20764.42
0.1083,0.8917	-20825.63
0.1024,0.8976	-20734.02
0.1092,0.8908	-20827.55
0.0914,0.9086	-20716.56
0.1075,0.8925	-20798.29
0.1012,0.8988	-20736.13
0.1078,0.8922	-20817.27
0.1142,0.8858	-20779.83
0.1108,0.8892	-20762.73
0.0880,0.9120	-20738.37
0.1195,0.8805	-20817.04
0.0984,0.9016	-20749.43
0.1052,0.8948	-20792.16
0.1124,0.8876	-20794.02
0.1167,0.8833	-20784.39
0.1126,0.8874	-20791.97
0.1148,0.8852	-20786.06
0.1011,0.8989	-20827.90
0.0991,0.9009	-20751.56
0.0992,0.9008	-20786.85
0.1086,0.8914	-20804.51
0.1132,0.8868	-20816.72
0.1146,0.8854	-20788.08
0.1081,0.8919	-20785.57
0.0957,0.9043	-20785.79
0.1075,0.8925	-20751.72
0.0936,0.9064	-20748.07
0.1119,0.8881	-20777.43
0.1156,0.8844	-20794.34
0.1076,0.8924	-20794.05
0.1059,0.8941	-20800.61
0.1081,0.8919	-20808.79
0.1094,0.8906	-20764.60
0.1023,0.8977	-20783.97
0.1142,0.8858	-20779.83
0.1179,0.8821	-20810.83
0.1022,0.8978	-20760.09
0.1033,0.8967	-20811.90
0.1151,0.8849	-20814.67
0.1021,0.8979	-20755.74
0.1111,0.8889	-20812.69
0.1117,0.8883	-20800.21
0.1107,0.8893	-20760.62
0.0987,0.9013	-20767.08
0.1041,0.8959	-20772.95
0.0983,0.9017	-20767.17
0.1098,0.8902	-20787.68
0.1133,0.8867	-20814.66
0.1113,0.8887	-20785.66
0.1017,0.8983	-20766.65
0.1053,0.8947	-20779.31
0.1088,0.8912	-20777.16
0.1074,0.8926	-20806.77
0.1049,0.8951	-20766.47
0.0981,0.9019	-20758.34
0.1056,0.8944	-20785.70
0.1105,0.8895	-20810.64
0.1057,0.8943	-20777.15
0.1037,0.8963	-20760.03
0.1044,0.8956	-20777.23
0.1034,0.8966	-20751.40
0.1057,0.8943	-20749.39
0.1110,0.8890	-20773.16
0.1009,0.8991	-20768.93
0.1147,0.8853	-20816.71
0.1109,0.8891	-20768.99
0.1074,0.8926	-20768.65
0.0993,0.9007	-20747.14
0.1078,0.8922	-20772.90
0.1002,0.8998	-20771.23
0.1039,0.8961	-20798.81
0.1125,0.8875	-20779.57
0.1077,0.8923	-20789.81
0.1048,0.8952	-20742.88
0.1158,0.8842	-20800.47
0.1153,0.8847	-20778.00
0.0962,0.9038	-20781.11
0.1063,0.8937	-20777.13
0.1019,0.8981	-20786.21
0.1073,0.8927	-20777.12
0.1082,0.8918	-20770.81
0.1072,0.8928	-20772.88
0.0901,0.9099	-20749.18
0.1033,0.8967	-20751.40
0.0912,0.9088	-20746.48
0.1092,0.8908	-20760.38
0.1086,0.8914	-20775.05
0.1086,0.8914	-20781.36
0.1018,0.8982	-20794.94
0.1071,0.8929	-20736.84
0.0946,0.9054	-20743.31
0.1165,0.8835	-20784.34
0.1122,0.8878	-20783.67
0.1032,0.8968	-20783.83
0.1061,0.8939	-20738.78
0.1050,0.8950	-20727.91
0.1053,0.8947	-20747.21
0.1053,0.8947	-20770.75
0.0965,0.9035	-20727.34
0.1174,0.8826	-20814.81
0.1150,0.8850	-20767.73
0.1148,0.8852	-20851.43
0.1022,0.8978	-20794.85
0.1001,0.8999	-20755.87
0.1027,0.8973	-20775.23
0.1169,0.8831	-20764.22
0.1164,0.8836	-20845.14
0.1165,0.8835	-20796.50
0.1144,0.8856	-20816.71
0.1019,0.8981	-20794.92
0.1105,0.8895	-20812.73
0.1113,0.8887	-20793.97
0.1164,0.8836	-20774.19
0.1223,0.8777	-20805.67
0.1308,0.8692	-20833.25
0.1051,0.8949	-20760.04
0.1194,0.8806	-20839.01
0.1132,0.8868	-20800.25
0.1000,0.9000	-20749.29
0.1278,0.8722	-20882.31
0.1153,0.8847	-20818.76
0.1036,0.8964	-20777.30
0.0957,0.9043	-20779.04
0.0958,0.9042	-20749.82
0.1102,0.8898	-20758.44
0.1119,0.8881	-20827.14
0.1016,0.8984	-20755.76
0.1009,0.8991	-20784.23
0.1018,0.8982	-20773.17
0.0981,0.9019	-20776.09
0.1236,0.8764	-20802.10
0.1142,0.8858	-20783.93
0.0913,0.9087	-20746.45
0.1156,0.8844	-20761.79
0.1027,0.8973	-20788.24
0.0940,0.9060	-20734.37
0.1071,0.8929	-20762.27
0.1117,0.8883	-20791.92
0.1019,0.8981	-20768.81
0.1100,0.8900	-20793.96
0.1086,0.8914	-20812.93
0.1167,0.8833	-20818.80
0.1091,0.8909	-20793.97
0.1179,0.8821	-20772.59
0.1047,0.8953	-20753.60
0.1083,0.8917	-20783.46
0.1022,0.8978	-20764.43
0.1010,0.8990	-20714.27
0.1181,0.8819	-20770.64
0.1219,0.8781	-20793.72
0.1071,0.8929	-20791.96
0.1031,0.8969	-20809.79
0.1122,0.8878	-20802.29
0.1036,0.8964	-20762.19
0.1114,0.8886	-20754.53
0.1121,0.8879	-20756.75
0.1071,0.8929	-20798.33
0.1011,0.8989	-20771.08
0.1074,0.8926	-20794.06
0.1114,0.8886	-20764.90
0.1048,0.8952	-20770.76
0.1074,0.8926	-20783.47
0.0962,0.9038	-20765.45
0.1011,0.8989	-20782.02
0.1048,0.8952	-20747.17
0.1053,0.8947	-20790.01
0.0956,0.9044	-20765.60
0.0944,0.9056	-20711.70
0.1018,0.8982	-20747.04
0.1050,0.8950	-20783.61
0.1131,0.8869	-20806.43
0.1125,0.8875	-20767.18
0.1109,0.8891	-20808.54
0.0931,0.9069	-20730.00
0.1027,0.8973	-20734.05
0.0931,0.9069	-20745.93
0.1100,0.8900	-20777.23
0.1041,0.8959	-20783.71
0.0971,0.9029	-20791.96
0.0964,0.9036	-20767.63
0.1128,0.8872	-20800.24
0.1040,0.8960	-20803.10
0.0980,0.9020	-20776.12
0.1070,0.8930	-20749.54
0.0987,0.9013	-20742.76
0.0983,0.9017	-20747.23
0.1137,0.8863	-20777.69
0.0960,0.9040	-20740.82
0.0935,0.9065	-20732.20
0.1053,0.8947	-20749.35
0.1144,0.8856	-20814.66
0.1041,0.8959	-20762.18
0.1187,0.8813	-20788.89
0.1038,0.8962	-20729.85
0.1028,0.8972	-20738.39
0.1145,0.8855	-20753.30
0.1036,0.8964	-20757.88
0.1058,0.8942	-20768.61
0.1176,0.8824	-20814.83
0.1087,0.8913	-20770.84
0.0955,0.9045	-20734.15
0.1126,0.8874	-20777.52
0.1055,0.8945	-20798.53
0.0998,0.9002	-20760.29
0.1168,0.8832	-20776.31
0.1097,0.8903	-20779.30
0.1063,0.8937	-20738.81
0.1001,0.8999	-20784.41
0.1062,0.8938	-20798.44
0.1314,0.8686	-20797.54
0.1239,0.8761	-20800.23
0.1130,0.8870	-20781.70
0.1066,0.8934	-20768.62
0.1043,0.8957	-20770.78
0.0960,0.9040	-20738.58
0.1160,0.8840	-20802.52
0.1075,0.8925	-20775.01
0.1206,0.8794	-20805.29
0.0975,0.9025	-20747.32
0.0962,0.9038	-20713.91
0.1113,0.8887	-20781.51
0.1115,0.8885	-20808.51
0.1126,0.8874	-20767.20
0.1159,0.8841	-20774.06
0.0925,0.9075	-20741.51
0.1066,0.8934	-20787.75
0.1055,0.8945	-20775.02
0.1134,0.8866	-20792.04
0.1192,0.8808	-20801.01
0.1002,0.8998	-20760.25
0.0995,0.9005	-20722.89
0.1052,0.8948	-20762.19
0.1027,0.8973	-20781.73
0.1061,0.8939	-20785.66
0.1174,0.8826	-20814.81
0.1098,0.8902	-20724.89
0.1088,0.8912	-20802.40
0.1066,0.8934	-20789.88
0.1123,0.8877	-20796.09
0.1039,0.8961	-20811.74
0.1025,0.8975	-20812.13
0.1189,0.8811	-20828.99
0.1140,0.8860	-20773.64
0.1105,0.8895	-20741.82
0.1092,0.8908	-20770.88
0.1039,0.8961	-20755.72
0.0967,0.9033	-20722.86
0.1195,0.8805	-20827.03
0.1023,0.8977	-20766.59
0.1120,0.8880	-20775.37
0.1064,0.8936	-20779.26
0.1070,0.8930	-20760.14
0.1032,0.8968	-20818.41
0.0903,0.9097	-20751.41
0.0978,0.9022	-20745.07
0.0963,0.9037	-20734.06
0.1071,0.8929	-20741.06
0.1022,0.8978	-20801.37
0.1029,0.8971	-20755.72
0.1091,0.8909	-20787.67
0.1191,0.8809	-20799.00
0.1064,0.8936	-20747.34
0.1051,0.8949	-20753.62
0.1006,0.8994	-20801.82
0.1023,0.8977	-20751.39
0.1229,0.8771	-20829.41
0.1159,0.8841	-20794.38
0.1032,0.8968	-20788.14
0.1184,0.8816	-20778.78
0.0999,0.9001	-20758.09
0.0963,0.9037	-20803.46
0.1058,0.8942	-20836.90
0.1086,0.8914	-20745.57
0.1023,0.8977	-20762.25
0.1105,0.8895	-20764.76
0.1218,0.8782	-20787.78
0.1072,0.8928	-20732.62
0.1189,0.8811	-20770.91
0.0949,0.9051	-20747.76
0.1104,0.8896	-20783.52
0.1170,0.8830	-20818.82
0.1123,0.8877	-20758.88
0.1147,0.8853	-20798.32
0.1294,0.8706	-20851.87
0.0932,0.9068	-20748.18
0.1008,0.8992	-20768.95
0.1010,0.8990	-20747.05
0.0922,0.9078	-20759.89
0.1082,0.8918	-20804.55
0.1148,0.8852	-20820.79
0.0977,0.9023	-20776.21
0.1006,0.8994	-20821.56
0.1027,0.8973	-20801.24
0.1062,0.8938	-20749.44
0.1003,0.8997	-20777.80
0.1074,0.8926	-20732.65
0.1063,0.8937	-20783.52
0.0978,0.9022	-20747.28
0.0989,0.9011	-20778.10
0.1068,0.8932	-20798.36
0.1201,0.8799	-20779.30
0.1122,0.8878	-20820.90
0.1149,0.8851	-20806.50
0.0942,0.9058	-20732.07
0.0981,0.9019	-20758.35
0.1077,0.8923	-20766.55
0.1066,0.8934	-20755.87
0.1062,0.8938	-20753.70
0.1232,0.8768	-20821.61
0.1109,0.8891	-20800.21
0.1093,0.8907	-20756.20
0.1002,0.8998	-20740.50
0.1025,0.8975	-20786.10
0.1142,0.8858	-20788.03
0.1050,0.8950	-20796.47
0.0948,0.9052	-20702.66
0.1093,0.8907	-20758.31
0.1036,0.8964	-20729.82
0.0991,0.9009	-20797.91
0.1180,0.8820	-20804.81
0.0958,0.9042	-20783.51
0.1077,0.8923	-20745.41
0.1119,0.8881	-20814.71
0.0968,0.9032	-20749.66
0.1158,0.8842	-20780.15
0.1187,0.8813	-20798.90
0.1079,0.8921	-20745.44
0.1242,0.8758	-20788.63
0.1014,0.8986	-20760.14
0.1182,0.8818	-20792.78
0.0991,0.9009	-20738.32
0.1219,0.8781	-20837.18
0.1247,0.8753	-20786.87
0.1175,0.8825	-20804.73
0.1074,0.8926	-20808.89
0.1063,0.8937	-20796.29
0.1034,0.8966	-20768.68
0.1018,0.8982	-20727.45
0.1093,0.8907	-20817.05
0.1137,0.8863	-20806.44
0.1079,0.8921	-20787.69
0.0991,0.9009	-20778.06
0.1141,0.8859	-20792.11
0.1079,0.8921	-20798.25
0.1173,0.8827	-20778.47
0.1130,0.8870	-20771.39
0.1132,0.8868	-20818.78
0.1003,0.8997	-20762.44
0.1196,0.8804	-20797.09
0.1140,0.8860	-20808.50
0.1106,0.8894	-20760.61
0.1112,0.8888	-20789.82
0.1038,0.8962	-20757.88
0.1006,0.8994	-20749.26
0.1108,0.8892	-20775.21
0.0991,0.9009	-20747.16
0.1097,0.8903	-20756.28
0.1084,0.8916	-20770.82
0.1058,0.8942	-20770.74
0.0986,0.9014	-20753.84
0.0981,0.9019	-20733.94
0.1052,0.8948	-20762.19
0.0924,0.9076	-20746.10
0.1066,0.8934	-20730.35
0.1039,0.8961	-20813.89
0.1120,0.8880	-20762.94
0.1017,0.8983	-20729.61
0.0980,0.9020	-20731.72
0.1032,0.8968	-20762.21
0.1144,0.8856	-20806.47
0.1044,0.8956	-20809.46
0.1145,0.8855	-20759.43
0.1001,0.8999	-20758.06
0.1071,0.8929	-20753.79
0.0999,0.9001	-20780.07
0.1109,0.8891	-20773.15
0.0941,0.9059	-20768.32
0.0964,0.9036	-20785.51
0.0892,0.9108	-20721.65
0.0988,0.9012	-20744.96
0.1044,0.8956	-20772.93
0.1202,0.8798	-20799.22
0.0957,0.9043	-20772.32
0.0972,0.9028	-20747.36
0.0967,0.9033	-20754.14
0.1122,0.8878	-20777.47
0.1079,0.8921	-20802.48
0.1119,0.8881	-20775.35
0.1091,0.8909	-20768.77
0.1073,0.8927	-20777.12
0.0920,0.9080	-20746.23
0.1183,0.8817	-20780.74
0.1010,0.8990	-20731.75
0.1098,0.8902	-20796.05
0.1109,0.8891	-20764.83
0.1191,0.8809	-20827.00
0.1032,0.8968	-20790.32
0.1121,0.8879	-20806.42
0.0971,0.9029	-20747.38
0.1101,0.8899	-20814.85
0.1050,0.8950	-20781.47
0.1056,0.8944	-20745.11
0.1026,0.8974	-20751.39
0.0992,0.9008	-20775.82
0.0889,0.9111	-20738.00
0.1126,0.8874	-20763.07
0.1115,0.8885	-20787.75
0.1126,0.8874	-20789.91
0.0940,0.9060	-20757.02
0.1044,0.8956	-20757.88
0.0966,0.9034	-20745.21
0.1146,0.8854	-20800.35
0.1015,0.8985	-20775.39
0.1046,0.8954	-20798.68
0.0955,0.9045	-20761.12
0.0974,0.9026	-20760.68
0.1012,0.8988	-20771.07
0.1074,0.8926	-20791.94
0.1011,0.8989	-20821.36
0.0996,0.9004	-20764.73
0.1011,0.8989	-20744.87
0.1096,0.8904	-20796.06
0.0948,0.9052	-20754.56
0.1020,0.8980	-20764.44
0.1056,0.8944	-20770.74
0.1032,0.8968	-20729.77
0.0956,0.9044	-20774.58
0.1179,0.8821	-20786.69
0.0971,0.9029	-20771.91
0.1108,0.8892	-20743.97
0.1207,0.8793	-20791.41
0.1048,0.8952	-20760.04
0.1067,0.8933	-20768.62
0.1093,0.8907	-20758.30
0.0970,0.9030	-20763.00
0.1088,0.8912	-20800.29
0.1102,0.8898	-20793.96
0.1183,0.8817	-20814.89
0.1013,0.8987	-20751.41
0.1013,0.8987	-20751.41
0.0969,0.9031	-20736.24
0.1001,0.8999	-20775.63
0.1036,0.8964	-20781.61
0.1015,0.8985	-20768.86
0.0976,0.9024	-20753.98
0.0982,0.9018	-20762.76
0.0932,0.9068	-20734.53
0.1158,0.8842	-20816.73
0.1110,0.8890	-20773.16
0.1084,0.8916	-20753.97
0.1094,0.8906	-20766.70
0.1055,0.8945	-20783.57
0.1063,0.8937	-20775.00
0.1071,0.8929	-20755.91
0.0981,0.9019	-20747.25
0.1076,0.8924	-20762.32
0.1087,0.8913	-20758.22
0.1141,0.8859	-20775.72
0.1122,0.8878	-20746.43
0.1020,0.8980	-20742.69
0.0945,0.9055	-20725.26
0.1101,0.8899	-20760.52
0.1116,0.8884	-20764.94
0.1076,0.8924	-20794.05
0.1061,0.8939	-20715.32
0.1005,0.8995	-20758.03
0.1034,0.8966	-20764.36
0.0984,0.9016	-20776.02
0.1052,0.8948	-20781.45
0.0992,0.9008	-20740.53
0.1035,0.8965	-20772.99
0.1016,0.8984	-20714.34
0.1149,0.8851	-20802.42
0.1019,0.8981	-20775.33
0.0952,0.9048	-20749.96
0.1149,0.8851	-20843.25
0.1031,0.8969	-20796.83
0.1012,0.8988	-20771.07
0.1060,0.8940	-20777.14
0.1044,0.8956	-20803.02
0.0981,0.9019	-20707.31
0.1131,0.8869	-20765.24
0.1029,0.8971	-20803.35
0.0999,0.9001	-20758.09
0.1038,0.8962	-20768.65
0.1153,0.8847	-20780.03
0.1100,0.8900	-20743.78
0.1121,0.8879	-20775.38
0.1066,0.8934	-20764.37
0.1086,0.8914	-20753.99
0.0968,0.9032	-20736.26
0.1085,0.8915	-20800.31
0.1116,0.8884	-20769.09
0.1033,0.8967	-20753.56
0.1243,0.8757	-20808.19
0.1134,0.8866	-20800.26
0.1084,0.8916	-20783.46
0.1043,0.8957	-20753.58
0.1112,0.8888	-20764.88
0.0912,0.9088	-20728.08
0.1153,0.8847	-20818.76
0.0979,0.9021	-20722.84
0.0903,0.9097	-20786.06
0.1052,0.8948	-20790.01
0.1017,0.8983	-20777.54
0.0964,0.9036	-20734.05
0.0987,0.9013	-20798.05
0.1141,0.8859	-20788.01
0.0951,0.9049	-20747.72
0.1108,0.8892	-20771.05
0.1030,0.8970	-20731.91
0.0945,0.9055	-20765.93
0.0981,0.9019	-20749.46
0.1111,0.8889	-20717.02
0.1117,0.8883	-20818.87
0.1067,0.8933	-20766.50
0.1120,0.8880	-20794.00
0.0995,0.9005	-20733.91
0.1062,0.8938	-20775.00
0.1108,0.8892	-20760.64
0.1046,0.8954	-20768.62
0.0978,0.9022	-20749.51
0.1020,0.8980	-20768.79
0.1098,0.8902	-20791.87
0.1070,0.8930	-20783.48
0.1050,0.8950	-20768.61
0.1210,0.8790	-20821.23
0.1029,0.8971	-20760.05
0.1074,0.8926	-20768.65
0.1117,0.8883	-20779.47
0.1054,0.8946	-20762.19
0.1078,0.8922	-20768.67
0.0985,0.9015	-20760.49
0.1065,0.8935	-20753.73
0.1021,0.8979	-20777.47
0.1131,0.8869	-20822.90
0.1062,0.8938	-20753.70
0.1094,0.8906	-20800.25
0.1032,0.8968	-20794.64
0.1127,0.8873	-20798.17
0.1106,0.8894	-20775.20
0.1222,0.8778	-20835.23
0.1093,0.8907	-20814.95
0.1064,0.8936	-20777.13
0.1239,0.8761	-20813.94
0.0948,0.9052	-20792.91
0.1096,0.8904	-20791.87
0.1174,0.8826	-20822.88
0.1025,0.8975	-20749.22
0.1104,0.8896	-20793.96
0.1125,0.8875	-20796.09
0.0906,0.9094	-20723.62
0.1122,0.8878	-20798.15
0.1220,0.8780	-20783.88
0.1060,0.8940	-20787.80
0.1049,0.8951	-20742.89
0.1244,0.8756	-20823.83
0.0940,0.9060	-20768.35
0.1174,0.8826	-20810.77
0.1122,0.8878	-20804.35
0.1119,0.8881	-20773.29
0.1016,0.8984	-20720.89
0.1171,0.8829	-20806.70
0.0990,0.9010	-20764.83
0.1080,0.8920	-20785.58
0.1047,0.8953	-20760.04
0.1183,0.8817	-20772.73
0.1009,0.8991	-20733.93
0.1071,0.8929	-20747.43
0.1096,0.8904	-20737.41
0.1066,0.8934	-20779.25
0.1084,0.8916	-20775.04
0.1050,0.8950	-20760.04
0.0987,0.9013	-20747.19
0.1120,0.8880	-20791.93
0.1131,0.8869	-20744.64
0.1029,0.8971	-20738.40
0.1185,0.8815	-20778.79
0.1226,0.8774	-20758.50
0.1085,0.8915	-20810.85
0.1304,0.8696	-20840.70
0.1178,0.8822	-20768.55
0.1025,0.8975	-20770.92
0.1173,0.8827	-20770.39
0.1099,0.8901	-20762.58
0.1032,0.8968	-20770.85
0.1185,0.8815	-20806.90
0.1064,0.8936	-20760.10
0.0988,0.9012	-20780.34
0.1195,0.8805	-20813.06
0.1047,0.8953	-20753.60
0.1013,0.8987	-20753.59
0.1101,0.8899	-20785.60
0.1068,0.8932	-20796.24
0.1147,0.8853	-20802.40
0.1157,0.8843	-20810.63
0.1128,0.8872	-20752.80
0.0902,0.9098	-20705.23
0.1057,0.8943	-20794.23
0.1088,0.8912	-20785.57
0.1084,0.8916	-20796.11
0.1036,0.8964	-20727.66
0.1070,0.8930	-20768.63
0.0912,0.9088	-20732.69
0.1142,0.8858	-20761.40
0.1093,0.8907	-20768.79
0.1067,0.8933	-20787.75
0.1067,0.8933	-20792.00
0.1140,0.8860	-20769.55
0.0968,0.9032	-20785.37
0.1094,0.8906	-20787.67
0.1040,0.8960	-20790.18
0.1030,0.8970	-20783.86
0.1060,0.8940	-20792.07
0.1120,0.8880	-20781.57
0.1232,0.8768	-20790.21
0.1105,0.8895	-20783.53
0.1094,0.8906	-20787.67
0.1092,0.8908	-20798.17
0.0988,0.9012	-20749.39
0.1066,0.8934	-20728.23
0.1136,0.8864	-20757.13
0.1012,0.8988	-20771.07
0.1123,0.8877	-20773.35
0.1058,0.8942	-20775.01
0.1001,0.8999	-20773.44
0.1167,0.8833	-20774.27
0.1068,0.8932	-20779.25
0.0977,0.9023	-20776.19
0.1150,0.8850	-20794.27
0.0994,0.9006	-20738.31
0.1062,0.8938	-20792.05
0.1087,0.8913	-20791.88
0.1037,0.8963	-20785.92
0.1056,0.8944	-20730.15
0.1093,0.8907	-20762.50
0.1026,0.8974	-20788.25
0.1040,0.8960	-20798.80
0.1134,0.8866	-20802.32
0.0911,0.9089	-20758.02
0.1036,0.8964	-20788.08
0.1061,0.8939	-20779.27
0.0993,0.9007	-20755.96
0.1077,0.8923	-20789.81
0.1159,0.8841	-20790.32
0.1063,0.8937	-20753.71
0.1044,0.8956	-20740.69
0.0979,0.9021	-20776.15
0.1039,0.8961	-20792.34
0.1260,0.8740	-20818.39
0.0963,0.9037	-20763.17
0.1098,0.8902	-20793.96
0.1096,0.8904	-20770.92
0.1183,0.8817	-20802.84
0.1103,0.8897	-20760.55
0.1062,0.8938	-20792.04
0.1059,0.8941	-20766.48
0.1124,0.8876	-20798.16
0.1008,0.8992	-20786.45
0.1076,0.8924	-20741.16
0.1072,0.8928	-20787.72
0.1156,0.8844	-20808.59
0.1196,0.8804	-20789.12
0.1102,0.8898	-20791.87
0.1149,0.8851	-20751.37
0.1209,0.8791	-20862.88
0.1172,0.8828	-20794.60
0.1029,0.8971	-20749.23
0.1156,0.8844	-20794.34
0.0995,0.9005	-20773.55
0.1212,0.8788	-20809.38
0.1060,0.8940	-20766.48
0.1077,0.8923	-20772.90
0.1068,0.8932	-20783.49
0.1117,0.8883	-20796.06
0.1169,0.8831	-20764.23
0.1138,0.8862	-20806.45
0.1136,0.8864	-20785.89
0.1076,0.8924	-20779.24
0.1018,0.8982	-20788.41
0.1096,0.8904	-20770.92
0.1166,0.8834	-20806.64
0.0933,0.9067	-20741.33
0.1139,0.8861	-20790.03
0.1039,0.8961	-20818.21
0.0924,0.9076	-20704.99
0.1035,0.8965	-20783.78
0.1040,0.8960	-20753.57
0.1046,0.8954	-20764.33
0.0989,0.9011	-20738.33
0.1074,0.8926	-20751.71
0.1018,0.8982	-20757.93
0.1137,0.8863	-20814.66
0.1119,0.8881	-20796.07
0.1031,0.8969	-20734.08
0.1138,0.8862	-20767.46
0.0964,0.9036	-20751.95
0.1069,0.8931	-20781.37
0.1076,0.8924	-20785.59
0.1045,0.8955	-20777.22
0.1098,0.8902	-20781.40
0.1103,0.8897	-20779.34
0.1030,0.8970	-20770.87
0.1092,0.8908	-20804.47
0.1061,0.8939	-20777.14
0.1066,0.8934	-20768.62
0.0932,0.9068	-20777.74
0.1150,0.8850	-20804.47
0.0996,0.9004	-20758.12
0.1135,0.8865	-20798.22
0.1229,0.8771	-20825.49
0.0936,0.9064	-20754.88
0.0960,0.9040	-20758.75
0.1019,0.8981	-20742.69
0.1091,0.8909	-20730.96
0.1001,0.8999	-20808.57
0.1188,0.8812	-20784.90
0.0958,0.9042	-20743.09
0.1009,0.8991	-20729.56
0.0944,0.9056	-20725.27
0.1051,0.8949	-20753.62
0.0869,0.9131	-20715.28
0.0956,0.9044	-20727.40
0.1063,0.8937	-20787.78
0.1015,0.8985	-20751.41
0.0925,0.9075	-20739.24
0.1096,0.8904	-20785.58
0.1073,0.8927	-20762.29
0.0816,0.9184	-20712.60
0.0971,0.9029	-20783.04
0.1154,0.8846	-20769.88
0.0878,0.9122	-20752.49
0.1208,0.8792	-20819.21
0.1105,0.8895	-20779.36
0.0982,0.9018	-20758.33
0.1142,0.8858	-20798.27
0.1078,0.8922	-20749.64
0.0928,0.9072	-20711.80
0.1156,0.8844	-20820.80
0.1175,0.8825	-20792.65
0.1137,0.8863	-20798.23
0.1025,0.8975	-20783.93
0.1084,0.8916	-20770.82
0.1123,0.8877	-20773.34
0.1068,0.8932	-20777.12
0.1217,0.8783	-20827.28
0.0997,0.9003	-20729.51
0.1004,0.8996	-20736.11
0.1079,0.8921	-20794.03
0.1081,0.8919	-20777.13
0.1060,0.8940	-20772.87
0.1204,0.8796	-20829.10
0.0948,0.9052	-20725.23
0.1237,0.8763	-20806.04
0.1011,0.8989	-20792.93
0.1088,0.8912	-20770.85
0.0977,0.9023	-20753.97
0.1185,0.8815	-20786.84
0.0885,0.9115	-20719.50
0.0990,0.9010	-20742.75
0.1037,0.8963	-20751.41
0.1103,0.8897	-20768.91
0.1048,0.8952	-20751.46
0.1061,0.8939	-20753.70
0.0945,0.9055	-20756.90
0.0971,0.9029	-20767.45
0.1098,0.8902	-20846.27
0.0963,0.9037	-20749.73
0.1060,0.8940	-20777.14
0.1020,0.8980	-20718.77
0.0962,0.9038	-20743.03
0.1044,0.8956	-20770.78
0.1024,0.8976	-20742.71
0.1123,0.8877	-20771.27
0.1049,0.8951	-20768.61
0.1041,0.8959	-20770.79
0.1101,0.8899	-20779.33
0.1115,0.8885	-20802.28
0.1029,0.8971	-20760.05
0.1128,0.8872	-20781.68
0.0984,0.9016	-20767.16
0.1020,0.8980	-20725.29
0.1046,0.8954	-20775.07
0.1033,0.8967	-20790.29
0.1000,0.9000	-20722.92
0.1080,0.8920	-20753.90
0.1040,0.8960	-20747.11
0.1086,0.8914	-20806.62
0.0998,0.9002	-20755.90
0.1110,0.8890	-20781.48
0.1056,0.8944	-20777.15
0.1061,0.8939	-20785.66
0.0996,0.9004	-20762.53
0.1104,0.8896	-20796.04
0.1008,0.8992	-20755.81
0.1065,0.8935	-20760.11
0.0930,0.9070	-20766.46
0.0935,0.9065	-20729.92
0.1190,0.8810	-20833.00
0.1001,0.8999	-20764.66
0.1134,0.8866	-20789.98
0.1046,0.8954	-20796.53
0.1055,0.8945	-20772.88
0.1061,0.8939	-20813.36
0.1100,0.8900	-20791.87
0.1160,0.8840	-20792.37
0.1249,0.8751	-20823.93
0.1052,0.8948	-20730.08
0.1074,0.8926	-20772.89
0.1169,0.8831	-20796.57
0.1028,0.8972	-20731.89
0.1076,0.8924	-20789.82
0.1193,0.8807	-20837.01
0.0976,0.9024	-20756.21
0.1027,0.8973	-20762.23
0.1040,0.8960	-20775.10
0.1068,0.8932	-20753.76
0.1075,0.8925	-20764.42
0.1066,0.8934	-20802.64
0.1052,0.8948	-20768.61
0.1069,0.8931	-20753.77
0.1023,0.8977	-20725.32
0.1054,0.8946	-20755.78
0.1078,0.8922	-20766.56
0.1007,0.8993	-20790.86
0.1056,0.8944	-20775.02
0.1037,0.8963	-20796.69
0.0987,0.9013	-20767.10
0.1054,0.8946	-20779.30
0.1059,0.8941	-20772.88
0.1096,0.8904	-20770.92
0.1033,0.8967	-20781.65
0.0964,0.9036	-20747.48
0.0980,0.9020	-20800.53
0.1006,0.8994	-20786.50
0.1030,0.8970	-20751.39
0.1114,0.8886	-20783.60
0.1053,0.8947	-20749.35
0.0961,0.9039	-20734.09
0.1150,0.8850	-20771.82
0.1062,0.8938	-20783.52
0.1082,0.8918	-20789.79
0.1044,0.8956	-20747.13
0.1124,0.8876	-20781.63
0.0934,0.9066	-20739.03
0.0972,0.9028	-20760.74
0.1068,0.8932	-20785.62
0.0970,0.9030	-20800.93
0.1039,0.8961	-20781.58
0.1083,0.8917	-20787.68
0.1003,0.8997	-20720.75
0.1076,0.8924	-20736.94
0.1067,0.8933	-20800.49
0.1062,0.8938	-20768.61
0.1001,0.8999	-20786.61
0.1035,0.8965	-20775.15
0.1014,0.8986	-20792.87
0.1028,0.8972	-20744.89
0.0962,0.9038	-20792.31
0.1142,0.8858	-20759.36
0.1109,0.8891	-20787.72
0.1004,0.8996	-20749.26
0.1021,0.8979	-20770.96
0.1060,0.8940	-20762.21
0.0964,0.9036	-20722.87
0.1051,0.8949	-20772.89
0.1100,0.8900	-20743.77
0.0989,0.9011	-20744.96
0.0968,0.9032	-20725.09
0.0988,0.9012	-20767.07
0.1000,0.9000	-20729.51
0.1126,0.8874	-20787.84
0.1144,0.8856	-20843.31
0.1073,0.8927	-20760.17
0.1115,0.8885	-20771.14
0.0972,0.9028	-20816.47
0.1091,0.8909	-20796.07
0.1043,0.8957	-20790.13
0.1068,0.8932	-20779.25
0.1078,0.8922	-20758.10
0.1087,0.8913	-20722.44
0.1022,0.8978	-20760.09
0.1240,0.8760	-20790.51
0.1007,0.8993	-20738.30
0.1011,0.8989	-20779.82
0.1058,0.8942	-20751.53
0.1003,0.8997	-20782.18
0.1118,0.8882	-20806.43
0.1166,0.8834	-20770.18
0.1078,0.8922	-20787.69
0.1054,0.8946	-20777.16
0.0995,0.9005	-20740.51
0.1042,0.8958	-20740.66
0.0968,0.9032	-20780.92
0.1011,0.8989	-20775.46
0.1170,0.8830	-20808.72
0.1102,0.8898	-20785.60
0.1075,0.8925	-20766.54
0.1059,0.8941	-20775.01
0.1063,0.8937	-20785.65
0.0922,0.9078	-20766.77
0.1087,0.8913	-20768.74
0.0991,0.9009	-20775.84
0.1101,0.8899	-20758.43
0.0998,0.9002	-20806.48
0.1107,0.8893	-20796.04
0.1135,0.8865	-20794.10
0.1007,0.8993	-20744.87
0.0867,0.9133	-20769.52
0.1039,0.8961	-20760.03
0.1034,0.8966	-20779.48
0.1020,0.8980	-20762.27
0.0944,0.9056	-20729.78
0.1099,0.8901	-20741.68
0.0977,0.9023	-20762.86
0.1010,0.8990	-20762.36
0.1100,0.8900	-20810.68
0.1181,0.8819	-20794.77
0.0981,0.9019	-20756.12
0.1135,0.8865	-20773.54
0.1135,0.8865	-20802.32
0.0997,0.9003	-20744.91
0.1057,0.8943	-20807.04
0.1006,0.8994	-20775.53
0.1087,0.8913	-20770.84
0.1073,0.8927	-20751.69
0.1243,0.8757	-20808.18
0.1069,0.8931	-20785.61
0.1045,0.8955	-20802.99
0.1137,0.8863	-20810.55
0.1134,0.8866	-20763.26
0.1116,0.8884	-20796.06
0.1200,0.8800	-20797.18
0.1037,0.8963	-20760.03
0.1035,0.8965	-20747.08
0.1076,0.8924	-20751.74
0.1082,0.8918	-20766.59
0.1259,0.8741	-20789.29
0.1084,0.8916	-20770.82
0.1098,0.8902	-20791.87
0.0980,0.9020	-20776.11
0.1128,0.8872	-20758.99
0.1148,0.8852	-20761.55
0.1227,0.8773	-20805.79
0.1043,0.8957	-20747.13
0.0973,0.9027	-20731.76
0.0887,0.9113	-20747.39
0.1035,0.8965	-20770.83
0.1132,0.8868	-20771.44
0.1230,0.8770	-20803.88
0.1085,0.8915	-20794.00
0.1140,0.8860	-20796.20
0.1064,0.8936	-20762.23
0.0963,0.9037	-20799.00
0.0904,0.9096	-20721.37
0.1301,0.8699	-20793.13
0.1060,0.8940	-20749.42
0.1131,0.8869	-20812.61
0.0954,0.9046	-20740.92
0.0963,0.9037	-20767.65
0.0839,0.9161	-20728.33
0.1083,0.8917	-20779.25
0.0989,0.9011	-20760.43
0.1141,0.8859	-20800.31
0.1094,0.8906	-20777.19
0.0974,0.9026	-20762.93
0.1052,0.8948	-20777.17
0.0942,0.9058	-20732.09
0.0995,0.9005	-20747.12
0.1188,0.8812	-20802.94
0.1054,0.8946	-20768.61
