#isoforms=['exon:trans3:3_exon:trans3:2_exon:trans3:1','exon:trans2:3_exon:trans2:2_exon:trans2:1']	exon_lens=('exon:trans3:3',300),('exon:trans3:2',500),('exon:trans3:1',250),('exon:trans2:3',300),('exon:trans2:2',600),('exon:trans2:1',250)	iters=5000	burn_in=500	lag=10	percent_accept=75.82	proposal_type=drift	counts=(0,0):11,(0,1):1683,(1,0):171,(1,1):1005	assigned_counts=0:274,1:2585	chrom=test1	strand=-	mRNA_starts=3000,3000	mRNA_ends=5299,5299
sampled_psi	log_score
0.1043,0.8957	-20764.33
0.1068,0.8932	-20789.86
0.1116,0.8884	-20783.61
0.0990,0.9010	-20753.78
0.1164,0.8836	-20816.76
0.1057,0.8943	-20817.73
0.0945,0.9055	-20761.42
0.1054,0.8946	-20749.36
0.0904,0.9096	-20737.53
0.1149,0.8851	-20802.42
0.1171,0.8829	-20786.51
0.1099,0.8901	-20814.87
0.1016,0.8984	-20751.40
0.1005,0.8995	-20762.41
0.1041,0.8959	-20777.25
0.1164,0.8836	-20780.28
0.1010,0.8990	-20733.94
0.1094,0.8906	-20758.32
0.1131,0.8869	-20777.60
0.1031,0.8969	-20747.06
0.1137,0.8863	-20790.01
0.1195,0.8805	-20793.08
0.0987,0.9013	-20775.94
0.1043,0.8957	-20757.88
0.0994,0.9006	-20740.52
0.1132,0.8868	-20798.20
0.1159,0.8841	-20810.64
0.1028,0.8972	-20749.22
0.1036,0.8964	-20796.73
0.1076,0.8924	-20804.62
0.1041,0.8959	-20796.63
0.1088,0.8912	-20772.95
0.0958,0.9042	-20722.89
0.1049,0.8951	-20766.47
0.1202,0.8798	-20858.94
0.1118,0.8882	-20793.99
0.1036,0.8964	-20777.30
0.1062,0.8938	-20798.44
0.0987,0.9013	-20775.95
0.1065,0.8935	-20723.96
0.1142,0.8858	-20818.75
0.1066,0.8934	-20787.75
0.1037,0.8963	-20757.88
0.1081,0.8919	-20756.04
0.1108,0.8892	-20787.72
0.0969,0.9031	-20760.81
0.1169,0.8831	-20794.54
0.1136,0.8864	-20773.57
0.0950,0.9050	-20711.68
0.1155,0.8845	-20812.65
0.1074,0.8926	-20745.35
0.1019,0.8981	-20753.57
0.1171,0.8829	-20776.41
0.1072,0.8928	-20749.57
0.1053,0.8947	-20783.59
0.1063,0.8937	-20757.97
0.1112,0.8888	-20812.68
0.1112,0.8888	-20779.42
0.1056,0.8944	-20755.79
0.1092,0.8908	-20783.48
0.1097,0.8903	-20798.15
0.0996,0.9004	-20788.95
0.1194,0.8806	-20813.03
0.1035,0.8965	-20753.56
0.1038,0.8962	-20755.72
0.1028,0.8972	-20777.39
0.1163,0.8837	-20780.25
0.1080,0.8920	-20796.13
0.1118,0.8882	-20791.92
0.1069,0.8931	-20789.86
0.1095,0.8905	-20779.29
0.1100,0.8900	-20773.05
0.1045,0.8955	-20738.55
0.1067,0.8933	-20800.50
0.1125,0.8875	-20798.16
0.0996,0.9004	-20758.13
0.1085,0.8915	-20772.93
0.1155,0.8845	-20804.51
0.1112,0.8888	-20816.84
0.1098,0.8902	-20791.87
0.1051,0.8949	-20760.04
0.0992,0.9008	-20718.47
0.1176,0.8824	-20756.37
0.1137,0.8863	-20794.13
0.1090,0.8910	-20791.87
0.0915,0.9085	-20718.85
0.1005,0.8995	-20738.30
0.1060,0.8940	-20792.07
0.1076,0.8924	-20734.81
0.1116,0.8884	-20783.61
0.1124,0.8876	-20781.63
0.0917,0.9083	-20730.28
0.1052,0.8948	-20768.61
0.0953,0.9047	-20749.94
0.1126,0.8874	-20781.65
0.1086,0.8914	-20770.83
0.1017,0.8983	-20753.58
0.0967,0.9033	-20700.51
0.1086,0.8914	-20777.15
0.1049,0.8951	-20792.20
0.1091,0.8909	-20793.97
0.1048,0.8952	-20757.89
0.1048,0.8952	-20766.47
0.1072,0.8928	-20764.40
0.0961,0.9039	-20734.09
0.1064,0.8936	-20743.07
0.1196,0.8804	-20847.00
0.1074,0.8926	-20772.89
0.1030,0.8970	-20753.56
0.1013,0.8987	-20766.70
0.1095,0.8905	-20817.02
0.1083,0.8917	-20756.05
0.1146,0.8854	-20788.08
0.1065,0.8935	-20777.13
0.1091,0.8909	-20737.28
0.0957,0.9043	-20758.83
0.1150,0.8850	-20786.11
0.1056,0.8944	-20772.88
0.1017,0.8983	-20736.15
0.0959,0.9041	-20758.79
0.1001,0.8999	-20771.24
0.1099,0.8901	-20814.88
0.1172,0.8828	-20794.60
0.1011,0.8989	-20740.50
0.1035,0.8965	-20766.51
0.1165,0.8835	-20806.64
0.1120,0.8880	-20791.93
0.1131,0.8869	-20765.24
0.1212,0.8788	-20841.07
0.1057,0.8943	-20783.56
0.1016,0.8984	-20788.45
0.1091,0.8909	-20798.18
0.1167,0.8833	-20839.04
0.1043,0.8957	-20775.08
0.1080,0.8920	-20764.46
0.1098,0.8902	-20758.38
0.0976,0.9024	-20736.19
0.1027,0.8973	-20770.90
0.1164,0.8836	-20774.19
0.0981,0.9019	-20725.06
0.1153,0.8847	-20794.30
0.1182,0.8818	-20810.87
0.1136,0.8864	-20761.25
0.1025,0.8975	-20742.71
0.1034,0.8966	-20785.95
0.0970,0.9030	-20747.40
0.0966,0.9034	-20747.46
0.1129,0.8871	-20787.87
0.1072,0.8928	-20758.04
0.0998,0.9002	-20782.30
0.1043,0.8957	-20792.29
0.1086,0.8914	-20770.84
0.1065,0.8935	-20798.40
0.0985,0.9015	-20793.72
0.1074,0.8926	-20800.42
0.0945,0.9055	-20774.96
0.1013,0.8987	-20760.15
0.1147,0.8853	-20767.67
0.1139,0.8861	-20777.72
0.0957,0.9043	-20756.59
0.1098,0.8902	-20760.47
0.1018,0.8982	-20768.82
0.0980,0.9020	-20767.23
0.1050,0.8950	-20768.61
0.1150,0.8850	-20779.98
0.1031,0.8969	-20757.88
0.1113,0.8887	-20777.35
0.0964,0.9036	-20747.48
0.1063,0.8937	-20785.65
0.1052,0.8948	-20772.89
0.1133,0.8867	-20781.74
0.1148,0.8852	-20800.37
0.1181,0.8819	-20764.60
0.1064,0.8936	-20751.59
0.1010,0.8990	-20747.05
0.0950,0.9050	-20734.21
0.1109,0.8891	-20748.18
0.0970,0.9030	-20749.62
0.1035,0.8965	-20814.00
0.1127,0.8873	-20779.60
0.1216,0.8784	-20777.84
0.0944,0.9056	-20759.18
0.1046,0.8954	-20736.41
0.1064,0.8936	-20747.34
0.1121,0.8879	-20769.17
0.1212,0.8788	-20805.42
0.1252,0.8748	-20781.23
0.1004,0.8996	-20771.19
0.0962,0.9038	-20745.27
0.1048,0.8952	-20785.77
0.1054,0.8946	-20751.50
0.1074,0.8926	-20760.18
0.1100,0.8900	-20816.96
0.1035,0.8965	-20755.72
0.1030,0.8970	-20790.35
0.1044,0.8956	-20770.78
0.1003,0.8997	-20769.01
0.0960,0.9040	-20774.46
0.0973,0.9027	-20742.89
0.1110,0.8890	-20766.92
0.1120,0.8880	-20796.07
0.0995,0.9005	-20744.92
0.1024,0.8976	-20744.88
0.1066,0.8934	-20762.24
0.1096,0.8904	-20802.34
0.1098,0.8902	-20796.05
0.0990,0.9010	-20760.42
0.1002,0.8998	-20751.47
0.1109,0.8891	-20773.15
0.1105,0.8895	-20754.33
0.1094,0.8906	-20766.70
0.0934,0.9066	-20750.39
0.1172,0.8828	-20790.57
0.0987,0.9013	-20773.72
0.1085,0.8915	-20762.41
0.1144,0.8856	-20824.89
0.1082,0.8918	-20783.46
0.1067,0.8933	-20772.87
0.1154,0.8846	-20833.01
0.0947,0.9053	-20725.23
0.1210,0.8790	-20795.46
0.1062,0.8938	-20772.87
0.0996,0.9004	-20762.53
0.1119,0.8881	-20783.64
0.1056,0.8944	-20736.56
0.0922,0.9078	-20721.02
0.1088,0.8912	-20775.06
0.1084,0.8916	-20791.89
0.1092,0.8908	-20756.19
0.0921,0.9079	-20725.62
0.0976,0.9024	-20738.41
0.0976,0.9024	-20733.97
0.1010,0.8990	-20766.72
0.1153,0.8847	-20786.16
0.1172,0.8828	-20818.83
0.0858,0.9142	-20744.05
0.0957,0.9043	-20752.10
0.1018,0.8982	-20766.64
0.0979,0.9021	-20753.93
0.1254,0.8746	-20837.65
0.0991,0.9009	-20733.91
0.1045,0.8955	-20742.85
0.1014,0.8986	-20784.14
0.1095,0.8905	-20791.87
0.0987,0.9013	-20727.28
0.1089,0.8911	-20751.94
0.1082,0.8918	-20747.61
0.0983,0.9017	-20760.52
0.1075,0.8925	-20775.01
0.1237,0.8763	-20817.80
0.1057,0.8943	-20757.93
0.1091,0.8909	-20777.17
0.1120,0.8880	-20787.79
0.1038,0.8962	-20751.41
0.1129,0.8871	-20763.13
0.1146,0.8854	-20765.58
0.1049,0.8951	-20772.90
0.1050,0.8950	-20790.05
0.1059,0.8941	-20762.21
0.1091,0.8909	-20802.37
0.1164,0.8836	-20802.57
0.1107,0.8893	-20793.96
0.1101,0.8899	-20754.25
0.1085,0.8915	-20728.71
0.1012,0.8988	-20786.36
0.1143,0.8857	-20798.27
0.1092,0.8908	-20796.07
0.1083,0.8917	-20796.11
0.1048,0.8952	-20734.30
0.1123,0.8877	-20816.76
0.1107,0.8893	-20762.71
0.0990,0.9010	-20758.21
0.1121,0.8879	-20785.73
0.1010,0.8990	-20762.35
0.0967,0.9033	-20785.43
0.1026,0.8974	-20801.26
0.1054,0.8946	-20779.30
0.0997,0.9003	-20760.31
0.1094,0.8906	-20758.32
0.0939,0.9061	-20747.99
0.1036,0.8964	-20755.72
0.1155,0.8845	-20796.36
0.0969,0.9031	-20771.96
0.1158,0.8842	-20814.70
0.1090,0.8910	-20756.16
0.0998,0.9002	-20733.91
0.0956,0.9044	-20722.91
0.1011,0.8989	-20757.98
0.1062,0.8938	-20762.22
0.0940,0.9060	-20757.04
0.1168,0.8832	-20804.65
0.0959,0.9041	-20749.81
0.0996,0.9004	-20773.53
0.1141,0.8859	-20767.53
0.1107,0.8893	-20785.62
0.1030,0.8970	-20755.72
0.1244,0.8756	-20790.64
0.1021,0.8979	-20751.39
0.0964,0.9036	-20758.67
0.1124,0.8876	-20794.03
0.1131,0.8869	-20748.77
0.0957,0.9043	-20729.64
0.1120,0.8880	-20758.79
0.1070,0.8930	-20791.98
0.0949,0.9051	-20752.28
0.0952,0.9048	-20776.98
0.1164,0.8836	-20794.47
0.1063,0.8937	-20779.26
0.1059,0.8941	-20732.35
0.1140,0.8860	-20833.11
0.0898,0.9102	-20760.89
0.1035,0.8965	-20757.88
0.1048,0.8952	-20785.78
0.0960,0.9040	-20747.55
0.1053,0.8947	-20764.33
0.1009,0.8991	-20766.74
0.0995,0.9005	-20740.51
0.0987,0.9013	-20738.34
0.1135,0.8865	-20787.94
0.1144,0.8856	-20816.71
0.0935,0.9065	-20750.37
0.1179,0.8821	-20786.69
0.1089,0.8911	-20783.47
0.0952,0.9048	-20756.72
0.1198,0.8802	-20771.22
0.1083,0.8917	-20770.82
0.1021,0.8979	-20755.74
0.1020,0.8980	-20747.04
0.1123,0.8877	-20777.48
0.1119,0.8881	-20771.21
0.1154,0.8846	-20792.28
0.1159,0.8841	-20800.48
0.0998,0.9002	-20758.11
0.1049,0.8951	-20760.04
0.1078,0.8922	-20743.31
0.1030,0.8970	-20788.19
0.1015,0.8985	-20784.12
0.1209,0.8791	-20825.19
0.1118,0.8882	-20789.85
0.1070,0.8930	-20760.15
0.1154,0.8846	-20828.94
0.0930,0.9070	-20761.88
0.0927,0.9073	-20714.09
0.1170,0.8830	-20786.47
0.1092,0.8908	-20810.76
0.1199,0.8801	-20817.10
0.0996,0.9004	-20769.13
0.0987,0.9013	-20702.95
0.1025,0.8975	-20770.92
0.1029,0.8971	-20716.75
0.1208,0.8792	-20759.67
0.0956,0.9044	-20767.84
0.0978,0.9022	-20756.17
0.1035,0.8965	-20744.92
0.1066,0.8934	-20751.61
0.1175,0.8825	-20798.68
0.1082,0.8918	-20770.81
0.1112,0.8888	-20804.36
0.1129,0.8871	-20763.14
0.1184,0.8816	-20802.86
0.0998,0.9002	-20771.29
0.1112,0.8888	-20758.63
0.1061,0.8939	-20783.53
0.1027,0.8973	-20799.07
0.1050,0.8950	-20777.19
0.1154,0.8846	-20820.79
0.0961,0.9039	-20740.80
0.1056,0.8944	-20762.20
0.1088,0.8912	-20789.78
0.1115,0.8885	-20775.31
0.1147,0.8853	-20792.18
0.1029,0.8971	-20753.56
0.1035,0.8965	-20766.51
0.1028,0.8972	-20786.05
0.1085,0.8915	-20796.10
0.1036,0.8964	-20757.88
0.0983,0.9017	-20756.10
0.0978,0.9022	-20767.28
0.0988,0.9012	-20742.76
0.1053,0.8947	-20766.47
0.1110,0.8890	-20777.33
0.0981,0.9019	-20756.13
0.0944,0.9056	-20763.71
0.1003,0.8997	-20771.21
0.1041,0.8959	-20798.78
0.1101,0.8899	-20777.24
0.1036,0.8964	-20775.14
0.1035,0.8965	-20783.78
0.0999,0.9001	-20727.31
0.1169,0.8831	-20741.95
0.1058,0.8942	-20785.68
0.0969,0.9031	-20756.33
0.1167,0.8833	-20820.83
0.1072,0.8928	-20743.20
0.1108,0.8892	-20781.47
0.1227,0.8773	-20774.31
0.0992,0.9008	-20758.18
0.1187,0.8813	-20796.89
0.1052,0.8948	-20764.33
0.1177,0.8823	-20790.67
0.1097,0.8903	-20741.62
0.1076,0.8924	-20764.43
0.1068,0.8932	-20758.01
0.1084,0.8916	-20806.65
0.1021,0.8979	-20781.82
0.1155,0.8845	-20786.18
0.1111,0.8889	-20791.89
0.1009,0.8991	-20740.49
0.1132,0.8868	-20789.96
0.1142,0.8858	-20804.41
0.1079,0.8921	-20768.68
0.1233,0.8767	-20778.48
0.1099,0.8901	-20768.85
0.1087,0.8913	-20777.15
0.1140,0.8860	-20783.90
0.1036,0.8964	-20744.93
0.1166,0.8834	-20800.57
0.1177,0.8823	-20794.69
0.1071,0.8929	-20770.76
0.0991,0.9009	-20762.61
0.0947,0.9053	-20736.51
0.0981,0.9019	-20762.77
0.1091,0.8909	-20747.77
0.1004,0.8996	-20773.38
0.1090,0.8910	-20791.87
0.1093,0.8907	-20760.40
0.0970,0.9030	-20754.08
0.0898,0.9102	-20777.08
0.0984,0.9016	-20713.99
0.1022,0.8978	-20757.91
0.1102,0.8898	-20789.78
0.1094,0.8906	-20785.58
0.0946,0.9054	-20759.12
0.1033,0.8967	-20779.49
0.0952,0.9048	-20720.68
0.0937,0.9063	-20736.70
0.1129,0.8871	-20796.12
0.1197,0.8803	-20791.12
0.1038,0.8962	-20779.44
0.0915,0.9085	-20737.20
0.1190,0.8810	-20770.93
0.1115,0.8885	-20781.53
0.1178,0.8822	-20808.80
0.1114,0.8886	-20760.74
0.1056,0.8944	-20740.84
0.1119,0.8881	-20783.64
0.1065,0.8935	-20749.47
0.1147,0.8853	-20765.62
0.1186,0.8814	-20752.77
0.1168,0.8832	-20790.48
0.1078,0.8922	-20791.92
0.0993,0.9007	-20771.39
0.0987,0.9013	-20725.07
0.1010,0.8990	-20753.61
0.0969,0.9031	-20747.40
0.0982,0.9018	-20745.02
0.1086,0.8914	-20764.52
0.1023,0.8977	-20755.73
0.1118,0.8882	-20808.50
0.1058,0.8942	-20770.74
0.0971,0.9029	-20749.60
0.1048,0.8952	-20766.47
0.1112,0.8888	-20789.81
0.1016,0.8984	-20755.76
0.1158,0.8842	-20808.60
0.1146,0.8854	-20783.99
0.1010,0.8990	-20731.75
0.1050,0.8950	-20753.61
0.0989,0.9011	-20733.91
0.1120,0.8880	-20810.56
0.1115,0.8885	-20791.91
0.1181,0.8819	-20824.93
0.1057,0.8943	-20770.74
0.1165,0.8835	-20784.35
0.0981,0.9019	-20725.06
0.1024,0.8976	-20760.07
0.1115,0.8885	-20793.98
0.0997,0.9003	-20742.71
0.1200,0.8800	-20797.19
0.1133,0.8867	-20796.14
0.1124,0.8876	-20810.55
0.1104,0.8896	-20775.18
0.1042,0.8958	-20781.55
0.1036,0.8964	-20760.03
0.1102,0.8898	-20777.24
0.1073,0.8927	-20796.19
0.1088,0.8912	-20804.50
0.1221,0.8779	-20764.21
0.1001,0.8999	-20738.30
0.1105,0.8895	-20796.04
0.1016,0.8984	-20703.44
0.1085,0.8915	-20756.08
0.1072,0.8928	-20804.68
0.1119,0.8881	-20767.06
0.1150,0.8850	-20769.77
0.1084,0.8916	-20775.04
0.1158,0.8842	-20774.05
0.1044,0.8956	-20800.86
0.1127,0.8873	-20794.04
0.0997,0.9003	-20793.33
0.1106,0.8894	-20779.37
0.1105,0.8895	-20731.40
0.1031,0.8969	-20835.77
0.1059,0.8941	-20807.00
0.1131,0.8869	-20769.36
0.1026,0.8974	-20788.25
0.1059,0.8941	-20747.27
0.0851,0.9149	-20756.27
0.1003,0.8997	-20758.04
0.1098,0.8902	-20791.87
0.1058,0.8942	-20789.95
0.1243,0.8757	-20814.04
0.1036,0.8964	-20766.51
0.1030,0.8970	-20777.36
0.1253,0.8747	-20824.02
0.0959,0.9041	-20734.11
0.1051,0.8949	-20742.91
0.1075,0.8925	-20794.05
0.1210,0.8790	-20811.32
0.1215,0.8785	-20787.69
0.1061,0.8939	-20745.16
0.1032,0.8968	-20788.16
0.1138,0.8862	-20796.18
0.1099,0.8901	-20773.05
0.1008,0.8992	-20782.08
0.1270,0.8730	-20830.25
0.1142,0.8858	-20763.45
0.1001,0.8999	-20777.84
0.0960,0.9040	-20776.70
0.1093,0.8907	-20777.18
0.1184,0.8816	-20814.91
0.1129,0.8871	-20802.30
0.1023,0.8977	-20775.29
0.1052,0.8948	-20796.43
0.1104,0.8896	-20793.96
0.0959,0.9041	-20752.05
0.1007,0.8993	-20742.68
0.1151,0.8849	-20759.59
0.1120,0.8880	-20794.00
0.1042,0.8958	-20787.99
0.0973,0.9027	-20733.98
0.1002,0.8998	-20782.20
0.1074,0.8926	-20760.18
0.0938,0.9062	-20725.34
0.1259,0.8741	-20820.30
0.1217,0.8783	-20795.66
0.0988,0.9012	-20740.55
0.1141,0.8859	-20792.11
0.1199,0.8801	-20854.97
0.0914,0.9086	-20757.92
0.1258,0.8742	-20808.63
0.1020,0.8980	-20753.57
0.1071,0.8929	-20755.91
0.1148,0.8852	-20806.50
0.1175,0.8825	-20806.76
0.0932,0.9068	-20736.80
0.1098,0.8902	-20766.75
0.1028,0.8972	-20755.72
0.0993,0.9007	-20720.67
0.1174,0.8826	-20820.86
0.1094,0.8906	-20739.45
0.0996,0.9004	-20751.52
0.1022,0.8978	-20764.43
0.0988,0.9012	-20742.76
0.0968,0.9032	-20756.36
0.1124,0.8876	-20771.29
0.1033,0.8967	-20762.20
0.0964,0.9036	-20760.90
0.1113,0.8887	-20752.43
0.1002,0.8998	-20744.89
0.1008,0.8992	-20775.50
0.1038,0.8962	-20760.03
0.1239,0.8761	-20833.49
0.1100,0.8900	-20773.05
0.1120,0.8880	-20800.21
0.1010,0.8990	-20733.94
0.0998,0.9002	-20755.90
0.1072,0.8928	-20772.88
0.1125,0.8875	-20791.97
0.1115,0.8885	-20804.36
0.1012,0.8988	-20757.97
0.1183,0.8817	-20794.81
0.0880,0.9120	-20726.66
0.0995,0.9005	-20758.13
0.1041,0.8959	-20794.47
0.1175,0.8825	-20816.83
0.1089,0.8911	-20775.06
0.1097,0.8903	-20837.93
0.1128,0.8872	-20756.93
0.1009,0.8991	-20736.12
0.1046,0.8954	-20768.62
0.1070,0.8930	-20768.63
0.1150,0.8850	-20806.51
0.1134,0.8866	-20783.82
0.1099,0.8901	-20835.79
0.0959,0.9041	-20778.98
0.1032,0.8968	-20803.28
0.0989,0.9011	-20744.96
0.1049,0.8951	-20783.62
0.1041,0.8959	-20779.40
0.1124,0.8876	-20794.02
0.1128,0.8872	-20845.62
0.1058,0.8942	-20807.03
0.1005,0.8995	-20766.80
0.1045,0.8955	-20755.74
0.1101,0.8899	-20796.05
0.0930,0.9070	-20736.84
0.1050,0.8950	-20762.19
0.0990,0.9010	-20736.12
0.1028,0.8972	-20790.38
0.0985,0.9015	-20773.78
0.1022,0.8978	-20792.67
0.0965,0.9035	-20742.99
0.1112,0.8888	-20806.44
0.1037,0.8963	-20772.97
0.1174,0.8826	-20804.73
0.1146,0.8854	-20784.00
0.1071,0.8929	-20747.44
0.1098,0.8902	-20770.94
0.1014,0.8986	-20747.04
0.1098,0.8902	-20783.49
0.0930,0.9070	-20780.12
0.1164,0.8836	-20802.58
0.1132,0.8868	-20785.85
0.1204,0.8796	-20819.16
0.1018,0.8982	-20760.11
0.1020,0.8980	-20751.39
0.1059,0.8941	-20779.28
0.1129,0.8871	-20781.69
0.1040,0.8960	-20766.49
0.1099,0.8901	-20808.60
0.1145,0.8855	-20763.51
0.1012,0.8988	-20797.27
0.1128,0.8872	-20812.61
0.1169,0.8831	-20839.03
0.1071,0.8929	-20796.20
0.1142,0.8858	-20773.68
0.0996,0.9004	-20722.90
0.1031,0.8969	-20801.15
0.1234,0.8766	-20831.45
0.1035,0.8965	-20775.15
0.1083,0.8917	-20751.84
0.1092,0.8908	-20787.67
0.1212,0.8788	-20799.48
0.0993,0.9007	-20778.00
0.1195,0.8805	-20795.08
0.1104,0.8896	-20787.70
0.1171,0.8829	-20766.29
0.1047,0.8953	-20751.45
0.0985,0.9015	-20733.92
0.0974,0.9026	-20729.52
0.0998,0.9002	-20766.89
0.0933,0.9067	-20734.51
0.1143,0.8857	-20810.56
0.1077,0.8923	-20760.21
0.1092,0.8908	-20785.57
0.1139,0.8861	-20787.99
0.1042,0.8958	-20803.05
0.0978,0.9022	-20736.18
0.1085,0.8915	-20791.89
0.1156,0.8844	-20800.45
0.1153,0.8847	-20816.72
0.0977,0.9023	-20742.85
0.1081,0.8919	-20760.25
0.0969,0.9031	-20745.17
0.1082,0.8918	-20772.92
0.1260,0.8740	-20816.45
0.1088,0.8912	-20804.50
0.1018,0.8982	-20784.07
0.1018,0.8982	-20731.80
0.1066,0.8934	-20747.36
0.1168,0.8832	-20804.65
0.1095,0.8905	-20779.29
0.1105,0.8895	-20791.87
0.1013,0.8987	-20747.05
0.0937,0.9063	-20745.78
0.1127,0.8873	-20810.55
0.1139,0.8861	-20796.20
0.1052,0.8948	-20777.17
0.1157,0.8843	-20818.76
0.0932,0.9068	-20775.49
0.0969,0.9031	-20754.10
0.1251,0.8749	-20845.38
0.1220,0.8780	-20797.71
0.1176,0.8824	-20760.40
0.1023,0.8977	-20766.59
0.0999,0.9001	-20760.29
0.1070,0.8930	-20781.36
0.1057,0.8943	-20802.78
0.0948,0.9052	-20747.80
0.1053,0.8947	-20787.86
0.1128,0.8872	-20785.79
0.1118,0.8882	-20789.85
0.1117,0.8883	-20814.72
0.1007,0.8993	-20773.33
0.1099,0.8901	-20754.21
0.1063,0.8937	-20762.23
0.0992,0.9008	-20789.07
0.0954,0.9046	-20749.91
0.1028,0.8972	-20820.70
0.1121,0.8879	-20789.87
0.1194,0.8806	-20795.04
0.1058,0.8942	-20751.53
0.1008,0.8992	-20788.63
0.0978,0.9022	-20762.83
0.1004,0.8996	-20797.50
0.1186,0.8814	-20788.86
0.1089,0.8911	-20764.56
0.1032,0.8968	-20783.83
0.1098,0.8902	-20762.57
0.1064,0.8936	-20736.70
0.1109,0.8891	-20802.29
0.1038,0.8962	-20766.50
0.1158,0.8842	-20798.44
0.1113,0.8887	-20785.67
0.1160,0.8840	-20788.31
0.1010,0.8990	-20771.10
0.1123,0.8877	-20781.62
0.1057,0.8943	-20772.88
0.1042,0.8958	-20744.97
0.1109,0.8891	-20744.01
0.1073,0.8927	-20775.00
0.0869,0.9131	-20762.33
0.0989,0.9011	-20725.07
0.1084,0.8916	-20798.21
0.1092,0.8908	-20772.98
0.1074,0.8926	-20749.59
0.1131,0.8869	-20771.42
0.0939,0.9061	-20720.79
0.1197,0.8803	-20815.08
0.1077,0.8923	-20794.04
0.1076,0.8924	-20764.43
0.1061,0.8939	-20777.14
0.1040,0.8960	-20775.11
0.1133,0.8867	-20785.86
0.0959,0.9041	-20754.30
0.1142,0.8858	-20820.80
0.1175,0.8825	-20786.60
0.1116,0.8884	-20791.91
0.1066,0.8934	-20781.38
0.1024,0.8976	-20740.54
0.0911,0.9089	-20741.93
0.1058,0.8942	-20772.88
0.1126,0.8874	-20794.04
0.1099,0.8901	-20773.04
0.1108,0.8892	-20781.46
0.1040,0.8960	-20766.49
0.0974,0.9026	-20816.37
0.0983,0.9017	-20756.09
0.1101,0.8899	-20808.59
0.1095,0.8905	-20800.25
0.1082,0.8918	-20762.38
0.1293,0.8707	-20844.23
0.1159,0.8841	-20808.61
0.0972,0.9028	-20765.19
0.1051,0.8949	-20781.47
0.0961,0.9039	-20720.64
0.1102,0.8898	-20773.07
0.1298,0.8702	-20821.49
0.1113,0.8887	-20814.75
0.1083,0.8917	-20789.79
0.1025,0.8975	-20775.26
0.0935,0.9065	-20764.00
0.0986,0.9014	-20767.12
0.1241,0.8759	-20788.56
0.1170,0.8830	-20792.55
0.1141,0.8859	-20790.06
0.1016,0.8984	-20760.12
0.1041,0.8959	-20768.64
0.1164,0.8836	-20774.20
0.1079,0.8921	-20804.58
0.1137,0.8863	-20742.79
0.1133,0.8867	-20775.57
0.1047,0.8953	-20717.10
0.0988,0.9012	-20725.07
0.1208,0.8792	-20813.26
0.1035,0.8965	-20762.20
0.1072,0.8928	-20753.80
0.1050,0.8950	-20734.32
0.1087,0.8913	-20804.51
0.0971,0.9029	-20720.62
0.0963,0.9037	-20774.36
0.1188,0.8812	-20796.92
0.1158,0.8842	-20796.40
0.0954,0.9046	-20756.67
0.1176,0.8824	-20814.83
0.1098,0.8902	-20789.77
0.0987,0.9013	-20764.89
0.1077,0.8923	-20783.47
0.0997,0.9003	-20821.91
0.0936,0.9064	-20732.18
0.1270,0.8730	-20807.12
0.1196,0.8804	-20811.07
0.1046,0.8954	-20770.77
0.1109,0.8891	-20818.94
0.1151,0.8849	-20757.56
0.0940,0.9060	-20754.78
0.1136,0.8864	-20781.78
0.1042,0.8958	-20775.09
0.1039,0.8961	-20770.80
0.1144,0.8856	-20816.71
0.1077,0.8923	-20758.10
0.1087,0.8913	-20741.38
0.1130,0.8870	-20804.37
0.1001,0.8999	-20736.11
0.1122,0.8878	-20808.49
0.1083,0.8917	-20810.87
0.1080,0.8920	-20772.91
0.1105,0.8895	-20793.96
0.1103,0.8897	-20764.74
0.1116,0.8884	-20791.91
0.1092,0.8908	-20741.50
0.1053,0.8947	-20747.22
0.1036,0.8964	-20729.82
0.1078,0.8922	-20758.11
0.1276,0.8724	-20838.08
0.0955,0.9045	-20720.67
0.1028,0.8972	-20747.06
0.1103,0.8897	-20756.37
0.1080,0.8920	-20806.69
0.1053,0.8947	-20781.45
0.1257,0.8743	-20831.88
0.0925,0.9075	-20741.52
0.1124,0.8876	-20785.75
0.0967,0.9033	-20749.67
0.1013,0.8987	-20773.25
0.1070,0.8930	-20749.54
0.1230,0.8770	-20815.69
0.0955,0.9045	-20738.65
0.1008,0.8992	-20782.07
0.1081,0.8919	-20764.47
0.0965,0.9035	-20765.37
0.1061,0.8939	-20785.66
0.1176,0.8824	-20810.79
0.1087,0.8913	-20747.70
0.1129,0.8871	-20783.74
0.1003,0.8997	-20769.01
0.1114,0.8886	-20783.59
0.0886,0.9114	-20724.14
0.1195,0.8805	-20817.05
0.1079,0.8921	-20781.35
0.1027,0.8973	-20725.38
0.0942,0.9058	-20741.14
0.1098,0.8902	-20779.31
0.1045,0.8955	-20734.25
0.1100,0.8900	-20758.42
0.0961,0.9039	-20792.36
0.1073,0.8927	-20791.95
0.1131,0.8869	-20792.01
0.1117,0.8883	-20769.11
0.1118,0.8882	-20777.41
0.1123,0.8877	-20781.61
0.1088,0.8912	-20739.31
0.1078,0.8922	-20772.90
0.1169,0.8831	-20806.68
0.1107,0.8893	-20793.96
0.1156,0.8844	-20794.34
0.0931,0.9069	-20732.27
0.1073,0.8927	-20764.41
0.1032,0.8968	-20777.34
0.1057,0.8943	-20777.15
0.1210,0.8790	-20813.30
0.1097,0.8903	-20768.83
0.1058,0.8942	-20775.01
0.1088,0.8912	-20775.05
0.1039,0.8961	-20779.42
0.1037,0.8963	-20734.16
0.1131,0.8869	-20829.08
0.0943,0.9057	-20750.17
0.1046,0.8954	-20749.30
0.1151,0.8849	-20775.93
0.0909,0.9091	-20721.25
0.1163,0.8837	-20800.53
0.1177,0.8823	-20788.65
0.1084,0.8916	-20819.29
0.1087,0.8913	-20758.21
0.1158,0.8842	-20788.27
0.1007,0.8993	-20771.15
0.1043,0.8957	-20742.83
0.1138,0.8862	-20810.55
0.1014,0.8986	-20775.41
0.0978,0.9022	-20713.96
0.1124,0.8876	-20820.88
0.0930,0.9070	-20711.79
0.1082,0.8918	-20796.12
0.0992,0.9008	-20762.59
0.1119,0.8881	-20818.86
0.1148,0.8852	-20790.16
0.1158,0.8842	-20796.41
0.1042,0.8958	-20742.82
0.1178,0.8822	-20794.71
0.1027,0.8973	-20760.06
0.1057,0.8943	-20783.55
0.1119,0.8881	-20785.71
0.1107,0.8893	-20789.79
0.1023,0.8977	-20757.91
0.1082,0.8918	-20777.14
0.1048,0.8952	-20768.62
0.1081,0.8919	-20760.25
0.1090,0.8910	-20787.67
0.1256,0.8744	-20824.10
0.1134,0.8866	-20755.02
0.1210,0.8790	-20799.43
0.1074,0.8926	-20770.77
0.1271,0.8729	-20843.76
0.0964,0.9036	-20765.40
0.1129,0.8871	-20787.87
0.1193,0.8807	-20805.02
0.1078,0.8922	-20758.10
0.1022,0.8978	-20805.72
0.0982,0.9018	-20767.19
0.1051,0.8949	-20772.89
0.0991,0.9009	-20767.01
0.1159,0.8841	-20820.80
0.1021,0.8979	-20760.09
0.1027,0.8973	-20773.07
0.0981,0.9019	-20711.75
0.1013,0.8987	-20755.78
0.1073,0.8927	-20755.93
0.1004,0.8996	-20731.72
0.1039,0.8961	-20747.10
0.1082,0.8918	-20798.23
0.1200,0.8800	-20825.08
0.1107,0.8893	-20796.04
0.1153,0.8847	-20767.80
0.0999,0.9001	-20722.92
0.1224,0.8776	-20797.82
0.0996,0.9004	-20775.74
0.1050,0.8950	-20766.47
0.1211,0.8789	-20807.36
0.1092,0.8908	-20783.47
0.1089,0.8911	-20764.55
0.1101,0.8899	-20743.79
0.1137,0.8863	-20833.14
0.1105,0.8895	-20816.91
0.1180,0.8820	-20796.76
0.0992,0.9008	-20744.94
0.1296,0.8704	-20817.64
0.1029,0.8971	-20755.72
0.1147,0.8853	-20761.54
0.1057,0.8943	-20740.85
0.1151,0.8849	-20780.01
0.1101,0.8899	-20791.87
0.1048,0.8952	-20800.80
0.1097,0.8903	-20781.40
0.1098,0.8902	-20791.87
0.1033,0.8967	-20794.62
0.0982,0.9018	-20691.80
0.1108,0.8892	-20779.39
0.1070,0.8930	-20783.48
0.1029,0.8971	-20768.71
0.1166,0.8834	-20804.62
0.1083,0.8917	-20787.68
0.1082,0.8918	-20804.55
0.0986,0.9014	-20769.34
0.0964,0.9036	-20711.68
0.1091,0.8909	-20783.47
0.0972,0.9028	-20765.19
0.1152,0.8848	-20802.45
0.1128,0.8872	-20804.36
0.1142,0.8858	-20771.64
0.0915,0.9085	-20721.13
0.1003,0.8997	-20744.88
0.1061,0.8939	-20775.01
0.0998,0.9002	-20744.91
0.0963,0.9037	-20756.46
0.1042,0.8958	-20734.21
0.1043,0.8957	-20738.53
0.1131,0.8869	-20781.71
0.0980,0.9020	-20747.26
0.1077,0.8923	-20783.47
0.0930,0.9070	-20711.79
0.1081,0.8919	-20751.81
0.1097,0.8903	-20819.08
0.1149,0.8851	-20800.38
0.1172,0.8828	-20780.46
0.1078,0.8922	-20772.90
0.1036,0.8964	-20781.61
0.1066,0.8934	-20787.75
0.1049,0.8951	-20792.20
0.1125,0.8875	-20798.16
0.1017,0.8983	-20771.00
0.1023,0.8977	-20775.28
0.0982,0.9018	-20753.89
0.1100,0.8900	-20758.41
0.0989,0.9011	-20775.90
0.1100,0.8900	-20760.50
0.1213,0.8787	-20785.65
0.1035,0.8965	-20779.47
0.0887,0.9113	-20754.41
0.1102,0.8898	-20766.81
0.0953,0.9047	-20727.43
0.0965,0.9035	-20772.07
0.0946,0.9054	-20725.25
0.0974,0.9026	-20774.06
0.1144,0.8856	-20788.05
0.1116,0.8884	-20785.68
0.0969,0.9031	-20740.71
0.0998,0.9002	-20760.30
0.1045,0.8955	-20779.37
0.1047,0.8953	-20745.01
0.1124,0.8876	-20777.49
0.0986,0.9014	-20753.84
0.1135,0.8865	-20794.10
0.1072,0.8928	-20747.45
0.1244,0.8756	-20804.31
0.1047,0.8953	-20781.49
0.1024,0.8976	-20796.97
0.0977,0.9023	-20765.08
0.1140,0.8860	-20816.71
0.1031,0.8969	-20781.67
0.1051,0.8949	-20777.18
0.0951,0.9049	-20743.22
0.0970,0.9030	-20751.85
0.1117,0.8883	-20773.25
0.1034,0.8966	-20785.95
0.1115,0.8885	-20791.91
0.1029,0.8971	-20766.55
0.1011,0.8989	-20775.46
0.1047,0.8953	-20790.08
0.0957,0.9043	-20761.08
0.1095,0.8905	-20796.06
0.1111,0.8889	-20773.18
0.1107,0.8893	-20791.88
0.1047,0.8953	-20760.04
0.1052,0.8948	-20781.45
0.0906,0.9094	-20758.20
0.1170,0.8830	-20812.75
0.1109,0.8891	-20779.39
0.1135,0.8865	-20781.78
0.1210,0.8790	-20799.42
0.1171,0.8829	-20822.87
0.0925,0.9075	-20762.07
0.1047,0.8953	-20787.93
0.1128,0.8872	-20808.49
0.1003,0.8997	-20731.72
0.1111,0.8889	-20744.06
0.0923,0.9077	-20759.85
0.1046,0.8954	-20777.21
0.1037,0.8963	-20755.72
0.1034,0.8966	-20740.60
0.1147,0.8853	-20798.31
0.1101,0.8899	-20754.26
0.1111,0.8889	-20758.61
0.0871,0.9129	-20750.48
0.1033,0.8967	-20740.59
0.1022,0.8978	-20766.60
0.1040,0.8960	-20788.03
0.1080,0.8920	-20730.69
0.1189,0.8811	-20826.99
0.0992,0.9008	-20725.08
0.1059,0.8941	-20807.00
0.1141,0.8859	-20804.41
0.1101,0.8899	-20787.69
0.1025,0.8975	-20779.60
0.1020,0.8980	-20727.46
0.0975,0.9025	-20745.10
0.0983,0.9017	-20760.52
0.1125,0.8875	-20740.34
0.1202,0.8798	-20807.19
0.0883,0.9117	-20696.22
0.1121,0.8879	-20787.80
0.0976,0.9024	-20765.11
0.1040,0.8960	-20742.80
0.1123,0.8877	-20806.42
0.0995,0.9005	-20736.11
0.1050,0.8950	-20783.62
0.1108,0.8892	-20762.73
0.1028,0.8972	-20786.06
0.1133,0.8867	-20773.51
0.1050,0.8950	-20826.47
0.1090,0.8910	-20804.48
0.1097,0.8903	-20796.06
0.1018,0.8982	-20775.35
0.1140,0.8860	-20757.25
0.1107,0.8893	-20818.96
0.1035,0.8965	-20777.30
0.1112,0.8888	-20766.95
0.1083,0.8917	-20743.41
0.1155,0.8845	-20798.41
0.1121,0.8879	-20810.56
0.1028,0.8972	-20770.89
0.1088,0.8912	-20781.36
0.1143,0.8857	-20806.47
0.1005,0.8995	-20727.34
0.1083,0.8917	-20789.79
0.1190,0.8810	-20800.97
0.0980,0.9020	-20778.34
0.0993,0.9007	-20764.77
0.1093,0.8907	-20768.79
0.1029,0.8971	-20716.74
0.1087,0.8913	-20775.05
0.1165,0.8835	-20802.58
0.1059,0.8941	-20762.21
0.1078,0.8922	-20770.79
0.1092,0.8908	-20800.27
0.1171,0.8829	-20802.67
0.0948,0.9052	-20693.63
0.1110,0.8890	-20777.32
0.1049,0.8951	-20742.89
0.1093,0.8907	-20768.79
0.1030,0.8970	-20751.39
0.1108,0.8892	-20773.14
0.0995,0.9005	-20742.72
0.1189,0.8811	-20788.92
0.1016,0.8984	-20779.74
0.1021,0.8979	-20764.44
0.1124,0.8876	-20800.22
0.0869,0.9131	-20729.41
0.1122,0.8878	-20754.71
0.1172,0.8828	-20794.59
0.1107,0.8893	-20798.13
0.1151,0.8849	-20816.71
0.1205,0.8795	-20787.37
0.0998,0.9002	-20760.31
0.1217,0.8783	-20773.89
0.1107,0.8893	-20764.79
0.1005,0.8995	-20742.69
0.1079,0.8921	-20749.67
0.0985,0.9015	-20756.07
0.1043,0.8957	-20757.88
0.1120,0.8880	-20827.12
0.1011,0.8989	-20751.42
0.1001,0.8999	-20764.66
0.1025,0.8975	-20792.61
0.1014,0.8986	-20742.68
0.0904,0.9096	-20739.82
0.1143,0.8857	-20810.56
0.0926,0.9074	-20723.24
0.1024,0.8976	-20775.27
0.1046,0.8954	-20755.74
0.1145,0.8855	-20773.76
0.1072,0.8928	-20743.21
0.1186,0.8814	-20841.01
0.1131,0.8869	-20829.08
0.1035,0.8965	-20770.83
0.1062,0.8938	-20751.57
0.1095,0.8905	-20754.13
0.1172,0.8828	-20788.54
0.0952,0.9048	-20711.68
0.1202,0.8798	-20785.30
0.1103,0.8897	-20777.25
0.1127,0.8873	-20758.97
0.1109,0.8891	-20779.40
0.1033,0.8967	-20790.30
0.1019,0.8981	-20764.45
0.1107,0.8893	-20823.13
0.1104,0.8896	-20806.48
0.1141,0.8859	-20771.61
0.1106,0.8894	-20821.06
0.1124,0.8876	-20791.95
0.1114,0.8886	-20806.44
0.1041,0.8959	-20785.87
0.1162,0.8838	-20796.47
0.1227,0.8773	-20811.67
0.1117,0.8883	-20825.09
0.0971,0.9029	-20769.67
0.1023,0.8977	-20753.56
0.1037,0.8963	-20757.88
0.1015,0.8985	-20736.14
0.1141,0.8859	-20747.01
0.1067,0.8933	-20753.75
0.1145,0.8855	-20794.21
0.1126,0.8874	-20761.01
0.1006,0.8994	-20766.77
0.1183,0.8817	-20814.90
0.1137,0.8863	-20781.79
0.1062,0.8938	-20775.00
0.1042,0.8958	-20768.64
0.1163,0.8837	-20810.67
0.1096,0.8904	-20791.87
0.1103,0.8897	-20777.26
0.1149,0.8851	-20784.03
0.1050,0.8950	-20785.76
0.0958,0.9042	-20754.32
0.0966,0.9034	-20776.50
0.1089,0.8911	-20754.05
0.1154,0.8846	-20775.98
0.1032,0.8968	-20805.44
0.1089,0.8911	-20781.37
0.1008,0.8992	-20755.81
0.1110,0.8890	-20789.80
0.1140,0.8860	-20769.54
0.1060,0.8940	-20757.95
0.1076,0.8924	-20785.59
0.1157,0.8843	-20796.39
0.1001,0.8999	-20826.15
0.0968,0.9032	-20751.88
0.1002,0.8998	-20766.83
0.1068,0.8932	-20741.01
0.0999,0.9001	-20771.28
0.1086,0.8914	-20753.99
0.0865,0.9135	-20753.13
0.1017,0.8983	-20792.80
0.1010,0.8990	-20755.80
0.1102,0.8898	-20806.49
0.0955,0.9045	-20720.67
0.1128,0.8872	-20810.55
0.1019,0.8981	-20762.28
0.1015,0.8985	-20744.86
0.1120,0.8880	-20771.23
0.1097,0.8903	-20804.43
0.1056,0.8944	-20742.97
0.1077,0.8923	-20745.41
0.1112,0.8888	-20785.66
0.1005,0.8995	-20753.64
0.1255,0.8745	-20812.42
0.1013,0.8987	-20762.33
0.1055,0.8945	-20792.13
0.1096,0.8904	-20812.81
0.1029,0.8971	-20729.74
0.1057,0.8943	-20798.51
0.1209,0.8791	-20817.24
0.1139,0.8861	-20771.58
0.1086,0.8914	-20741.35
0.0968,0.9032	-20783.14
0.1145,0.8855	-20818.75
0.1075,0.8925	-20787.71
0.1119,0.8881	-20825.07
0.1186,0.8814	-20782.83
0.1097,0.8903	-20741.63
0.0931,0.9069	-20736.83
0.1117,0.8883	-20789.84
0.1129,0.8871	-20802.30
0.1030,0.8970	-20770.87
0.1127,0.8873	-20767.22
0.1162,0.8838	-20808.64
0.0990,0.9010	-20771.45
0.1084,0.8916	-20766.61
0.1042,0.8958	-20740.67
0.0994,0.9006	-20744.93
0.1064,0.8936	-20787.77
0.1066,0.8934	-20781.38
0.0954,0.9046	-20727.42
0.1002,0.8998	-20760.25
0.0939,0.9061	-20745.73
0.1026,0.8974	-20725.36
0.0987,0.9013	-20769.30
0.1176,0.8824	-20808.78
0.1079,0.8921	-20785.58
0.1003,0.8997	-20786.57
0.1080,0.8920	-20768.68
0.1088,0.8912	-20762.44
0.1101,0.8899	-20783.51
0.1113,0.8887	-20769.04
0.1186,0.8814	-20796.87
0.0996,0.9004	-20749.32
0.1174,0.8826	-20780.51
0.1097,0.8903	-20791.87
0.1069,0.8931	-20806.84
0.1001,0.8999	-20740.50
0.1070,0.8930	-20781.36
0.1010,0.8990	-20764.54
0.1106,0.8894	-20775.20
0.1105,0.8895	-20771.01
0.1070,0.8930	-20753.78
0.1061,0.8939	-20762.22
0.1077,0.8923	-20743.30
0.1160,0.8840	-20802.53
0.1083,0.8917	-20789.79
0.1108,0.8892	-20779.39
0.1011,0.8989	-20790.76
0.0952,0.9048	-20727.43
0.1112,0.8888	-20785.66
0.1223,0.8777	-20829.33
0.0930,0.9070	-20684.46
0.1114,0.8886	-20812.67
0.0985,0.9015	-20795.92
0.1076,0.8924	-20808.86
0.1144,0.8856	-20783.96
0.1194,0.8806	-20803.04
0.0973,0.9027	-20771.86
0.1174,0.8826	-20810.77
0.1030,0.8970	-20755.72
0.1087,0.8913	-20787.67
0.1117,0.8883	-20771.19
0.1130,0.8870	-20773.47
0.1059,0.8941	-20817.68
0.1219,0.8781	-20791.75
0.0951,0.9049	-20758.99
0.1135,0.8865	-20792.05
0.1002,0.8998	-20769.03
0.1029,0.8971	-20792.53
0.1044,0.8956	-20798.72
0.1104,0.8896	-20781.44
0.0935,0.9065	-20741.28
0.1045,0.8955	-20787.97
0.1123,0.8877	-20806.42
0.1035,0.8965	-20790.27
0.1143,0.8857	-20779.84
0.1174,0.8826	-20820.86
0.1055,0.8945	-20751.51
0.1059,0.8941	-20757.94
0.1018,0.8982	-20790.60
0.1037,0.8963	-20753.56
0.1162,0.8838	-20772.10
0.1145,0.8855	-20763.53
0.1111,0.8889	-20773.18
0.1079,0.8921	-20747.56
0.1123,0.8877	-20802.29
0.1098,0.8902	-20766.76
0.1153,0.8847	-20765.78
0.1020,0.8980	-20727.47
0.0992,0.9008	-20751.55
0.1028,0.8972	-20760.06
0.0975,0.9025	-20745.10
0.1112,0.8888	-20775.26
0.1170,0.8830	-20804.68
0.1105,0.8895	-20775.19
0.0961,0.9039	-20774.44
0.1080,0.8920	-20749.69
0.1005,0.8995	-20744.88
0.1056,0.8944	-20753.65
0.1146,0.8854	-20786.03
0.1173,0.8827	-20798.65
0.0993,0.9007	-20773.60
0.1019,0.8981	-20760.10
0.0971,0.9029	-20769.68
0.1010,0.8990	-20757.98
0.1006,0.8994	-20751.45
0.1142,0.8858	-20794.17
0.1027,0.8973	-20755.72
0.0985,0.9015	-20778.19
0.1003,0.8997	-20760.24
0.1145,0.8855	-20775.80
0.1095,0.8905	-20791.87
0.1144,0.8856	-20798.29
0.1065,0.8935	-20783.51
0.1056,0.8944	-20715.19
0.1077,0.8923	-20798.27
0.1082,0.8918	-20779.25
0.1201,0.8799	-20819.12
0.1100,0.8900	-20796.05
0.1033,0.8967	-20760.04
0.1022,0.8978	-20736.18
0.1270,0.8730	-20834.10
0.1165,0.8835	-20780.30
0.1094,0.8906	-20785.58
0.1097,0.8903	-20768.83
0.1037,0.8963	-20768.66
0.0878,0.9122	-20736.09
0.1032,0.8968	-20738.42
0.1066,0.8934	-20736.73
0.1086,0.8914	-20745.58
0.1035,0.8965	-20785.95
0.1077,0.8923	-20779.24
0.0858,0.9142	-20732.23
0.1201,0.8799	-20785.26
0.1056,0.8944	-20766.47
0.1059,0.8941	-20738.75
0.1153,0.8847	-20792.26
0.0977,0.9023	-20767.30
0.1008,0.8992	-20786.44
0.1060,0.8940	-20762.21
0.1144,0.8856	-20755.30
0.1024,0.8976	-20794.80
0.1209,0.8791	-20805.34
0.1030,0.8970	-20762.21
0.0950,0.9050	-20754.51
0.0989,0.9011	-20733.91
0.1128,0.8872	-20833.24
0.1130,0.8870	-20789.94
0.1212,0.8788	-20827.21
0.1034,0.8966	-20751.40
0.0872,0.9128	-20708.16
0.0963,0.9037	-20774.38
0.1130,0.8870	-20787.88
0.0945,0.9055	-20750.11
0.1166,0.8834	-20772.23
0.1119,0.8881	-20775.36
0.1062,0.8938	-20766.48
0.1024,0.8976	-20742.70
0.1127,0.8873	-20802.30
0.1008,0.8992	-20725.18
0.1007,0.8993	-20747.06
0.1140,0.8860	-20783.90
0.1136,0.8864	-20816.71
0.1012,0.8988	-20799.48
0.1059,0.8941	-20770.74
0.0996,0.9004	-20788.94
0.1049,0.8951	-20732.17
0.1153,0.8847	-20804.49
0.1001,0.8999	-20801.98
0.1089,0.8911	-20768.75
0.1123,0.8877	-20756.80
0.1060,0.8940	-20757.95
0.1037,0.8963	-20768.66
0.1185,0.8815	-20786.84
0.1155,0.8845	-20808.58
0.1022,0.8978	-20775.30
0.1142,0.8858	-20781.87
0.0992,0.9008	-20760.38
0.1099,0.8901	-20798.14
0.1082,0.8918	-20770.81
0.1085,0.8915	-20800.31
0.1058,0.8942	-20772.88
0.1120,0.8880	-20767.08
0.1026,0.8974	-20792.59
0.1005,0.8995	-20773.38
0.1055,0.8945	-20751.51
0.0993,0.9007	-20789.05
0.1071,0.8929	-20800.45
0.1097,0.8903	-20787.68
0.0937,0.9063	-20736.69
0.1120,0.8880	-20810.57
0.1133,0.8867	-20806.43
0.1007,0.8993	-20779.91
0.0963,0.9037	-20758.70
0.1047,0.8953	-20777.20
0.1084,0.8916	-20764.50
0.1126,0.8874	-20794.03
0.0963,0.9037	-20765.41
0.1052,0.8948	-20777.17
0.1106,0.8894	-20781.45
0.1072,0.8928	-20751.68
0.0941,0.9059	-20757.00
0.1075,0.8925	-20777.12
0.1058,0.8942	-20783.55
0.1055,0.8945	-20789.98
0.1156,0.8844	-20835.04
0.1045,0.8955	-20745.00
0.1005,0.8995	-20731.73
0.0971,0.9029	-20754.07
0.0977,0.9023	-20738.41
0.1107,0.8893	-20787.71
0.1139,0.8861	-20808.50
0.1005,0.8995	-20760.22
0.1080,0.8920	-20783.46
0.1101,0.8899	-20827.39
0.1132,0.8868	-20757.03
0.0924,0.9076	-20734.69
0.1132,0.8868	-20779.66
0.1036,0.8964	-20772.98
0.1047,0.8953	-20764.33
0.1062,0.8938	-20794.18
0.1172,0.8828	-20788.55
0.0941,0.9059	-20747.94
0.1061,0.8939	-20802.71
0.1117,0.8883	-20793.99
0.0932,0.9068	-20770.92
0.1025,0.8975	-20773.09
0.1120,0.8880	-20808.49
0.1012,0.8988	-20766.70
0.1094,0.8906	-20773.00
0.0997,0.9003	-20749.31
0.1072,0.8928	-20813.15
0.1120,0.8880	-20808.50
0.1007,0.8993	-20753.63
0.0940,0.9060	-20766.09
0.1066,0.8934	-20823.89
0.1092,0.8908	-20758.29
0.1174,0.8826	-20756.30
0.0953,0.9047	-20761.19
0.1025,0.8975	-20757.90
0.1048,0.8952	-20772.91
0.0940,0.9060	-20747.96
0.1020,0.8980	-20790.56
0.0999,0.9001	-20747.10
0.1023,0.8977	-20794.82
0.1055,0.8945	-20777.16
0.1080,0.8920	-20783.46
0.1161,0.8839	-20794.42
0.1136,0.8864	-20818.77
0.0981,0.9019	-20745.03
0.1178,0.8822	-20841.02
0.1001,0.8999	-20760.26
0.1098,0.8902	-20787.68
0.1174,0.8826	-20806.74
0.1104,0.8896	-20743.87
0.1120,0.8880	-20791.93
0.1200,0.8800	-20811.14
0.1008,0.8992	-20786.45
0.1204,0.8796	-20821.15
0.1195,0.8805	-20757.13
0.1088,0.8912	-20808.70
0.1078,0.8922	-20772.90
0.1195,0.8805	-20785.10
0.0977,0.9023	-20800.64
0.1284,0.8716	-20786.55
0.0966,0.9034	-20760.87
0.0937,0.9063	-20761.66
0.0995,0.9005	-20777.96
0.1179,0.8821	-20820.90
0.0994,0.9006	-20769.17
0.1161,0.8839	-20792.39
0.1045,0.8955	-20764.33
0.1065,0.8935	-20783.50
0.1185,0.8815	-20826.96
0.1017,0.8983	-20775.36
0.0952,0.9048	-20707.17
0.1046,0.8954	-20815.86
0.1052,0.8948	-20753.62
0.1118,0.8882	-20802.28
0.1153,0.8847	-20778.00
0.1029,0.8971	-20768.71
0.1018,0.8982	-20740.51
0.1090,0.8910	-20741.44
0.1083,0.8917	-20751.84
0.1043,0.8957	-20777.23
0.1047,0.8953	-20749.30
0.1039,0.8961	-20792.34
0.0855,0.9145	-20696.79
0.1080,0.8920	-20768.69
0.1007,0.8993	-20771.15
0.1155,0.8845	-20759.72
0.1019,0.8981	-20727.45
0.1071,0.8929	-20762.28
0.0939,0.9061	-20747.99
0.1072,0.8928	-20762.28
0.1173,0.8827	-20812.79
0.1074,0.8926	-20777.12
0.1019,0.8981	-20762.28
0.1103,0.8897	-20808.57
0.0988,0.9012	-20744.97
0.1080,0.8920	-20758.13
0.1104,0.8896	-20764.75
0.1142,0.8858	-20775.73
0.1066,0.8934	-20781.38
0.1058,0.8942	-20796.35
0.1154,0.8846	-20747.46
0.1104,0.8896	-20819.00
0.1035,0.8965	-20788.10
0.1254,0.8746	-20816.28
0.1094,0.8906	-20770.90
0.1028,0.8972	-20773.05
0.1134,0.8866	-20822.88
0.1212,0.8788	-20793.53
0.1026,0.8974	-20779.58
0.1152,0.8848	-20796.33
0.0975,0.9025	-20760.67
0.0959,0.9041	-20718.40
0.1052,0.8948	-20779.32
0.1142,0.8858	-20790.07
0.1174,0.8826	-20782.53
0.1177,0.8823	-20792.68
0.1071,0.8929	-20777.12
0.0950,0.9050	-20759.02
0.1076,0.8924	-20800.40
0.1040,0.8960	-20783.72
0.1003,0.8997	-20769.02
0.1036,0.8964	-20738.45
0.1085,0.8915	-20772.93
0.1052,0.8948	-20775.03
0.0967,0.9033	-20725.09
0.1180,0.8820	-20794.76
0.0883,0.9117	-20726.57
0.1144,0.8856	-20786.00
0.1048,0.8952	-20779.34
0.1104,0.8896	-20754.31
0.1043,0.8957	-20762.18
0.1102,0.8898	-20768.89
0.1081,0.8919	-20745.47
0.1180,0.8820	-20796.76
0.1021,0.8979	-20753.57
0.0999,0.9001	-20784.48
0.1086,0.8914	-20819.26
0.0917,0.9083	-20727.98
0.1167,0.8833	-20786.42
0.1043,0.8957	-20757.88
0.1133,0.8867	-20761.17
0.1028,0.8972	-20775.22
0.1113,0.8887	-20787.74
0.0982,0.9018	-20749.46
0.1068,0.8932	-20794.11
0.1073,0.8927	-20749.57
0.1133,0.8867	-20777.62
0.1110,0.8890	-20814.77
0.1039,0.8961	-20779.42
0.1094,0.8906	-20775.10
0.1047,0.8953	-20757.89
0.1037,0.8963	-20792.39
0.0987,0.9013	-20756.04
0.0997,0.9003	-20744.91
0.1040,0.8960	-20760.03
0.1006,0.8994	-20760.21
0.1019,0.8981	-20773.16
0.1180,0.8820	-20784.70
0.1112,0.8888	-20775.27
0.0971,0.9029	-20765.21
0.0963,0.9037	-20790.03
0.1030,0.8970	-20747.06
0.1024,0.8976	-20770.93
0.1082,0.8918	-20787.68
0.0976,0.9024	-20769.54
0.1134,0.8866	-20779.71
0.1012,0.8988	-20755.78
0.1074,0.8926	-20789.82
0.0973,0.9027	-20760.72
0.1179,0.8821	-20794.73
0.1081,0.8919	-20823.57
0.1121,0.8879	-20800.22
0.1008,0.8992	-20727.36
0.1044,0.8956	-20760.03
0.0976,0.9024	-20758.42
0.1166,0.8834	-20776.28
0.1102,0.8898	-20745.91
0.1118,0.8882	-20798.14
0.1139,0.8861	-20785.93
0.1004,0.8996	-20725.15
0.1002,0.8998	-20747.08
0.1011,0.8989	-20742.68
0.1144,0.8856	-20822.85
0.0885,0.9115	-20712.52
0.1130,0.8870	-20810.55
0.0988,0.9012	-20731.70
0.1099,0.8901	-20756.31
0.1160,0.8840	-20802.53
0.1068,0.8932	-20783.49
0.0972,0.9028	-20754.05
0.1056,0.8944	-20813.46
0.0913,0.9087	-20705.09
0.0919,0.9081	-20716.48
0.0942,0.9058	-20763.77
0.1064,0.8936	-20783.51
0.1117,0.8883	-20789.84
0.1063,0.8937	-20798.42
0.0991,0.9009	-20791.31
0.1119,0.8881	-20771.22
0.1110,0.8890	-20771.07
0.1062,0.8938	-20787.78
0.1076,0.8924	-20813.09
0.1045,0.8955	-20749.29
0.1029,0.8971	-20751.39
0.1152,0.8848	-20806.52
0.1088,0.8912	-20770.85
0.1123,0.8877	-20820.89
0.1110,0.8890	-20798.13
0.1061,0.8939	-20792.05
0.1133,0.8867	-20831.12
0.1071,0.8929	-20785.61
0.0964,0.9036	-20769.85
0.1129,0.8871	-20794.06
0.0994,0.9006	-20738.31
0.1058,0.8942	-20811.30
0.0972,0.9028	-20803.10
0.1083,0.8917	-20794.00
0.1057,0.8943	-20760.07
0.1111,0.8889	-20825.17
0.1019,0.8981	-20770.98
0.0982,0.9018	-20769.42
0.0934,0.9066	-20741.30
0.1178,0.8822	-20826.93
0.1020,0.8980	-20734.00
0.1092,0.8908	-20764.58
0.0987,0.9013	-20740.55
0.0969,0.9031	-20780.89
0.1182,0.8818	-20839.00
0.1093,0.8907	-20787.67
0.1111,0.8889	-20804.37
0.1093,0.8907	-20754.11
0.1068,0.8932	-20762.25
0.1004,0.8996	-20788.74
0.1102,0.8898	-20762.63
0.1287,0.8713	-20800.12
0.1056,0.8944	-20800.66
0.1091,0.8909	-20791.87
0.1086,0.8914	-20749.78
0.0993,0.9007	-20762.57
0.1052,0.8948	-20760.05
0.1159,0.8841	-20806.58
0.0929,0.9071	-20739.14
0.1062,0.8938	-20751.57
0.1016,0.8984	-20757.94
0.0965,0.9035	-20736.28
0.0998,0.9002	-20802.11
0.1018,0.8982	-20797.12
0.1016,0.8984	-20768.83
0.1055,0.8945	-20730.13
0.1119,0.8881	-20754.63
0.1101,0.8899	-20775.15
0.1126,0.8874	-20787.84
0.0920,0.9080	-20757.70
0.1070,0.8930	-20796.22
0.1067,0.8933	-20747.37
0.1081,0.8919	-20779.24
0.1079,0.8921	-20745.45
0.1064,0.8936	-20781.38
0.1019,0.8981	-20786.21
0.1036,0.8964	-20747.09
0.1081,0.8919	-20775.02
0.1080,0.8920	-20785.58
0.1029,0.8971	-20731.90
0.1194,0.8806	-20811.03
0.0998,0.9002	-20705.31
0.1048,0.8952	-20785.78
0.1100,0.8900	-20793.96
0.1215,0.8785	-20827.25
0.1080,0.8920	-20749.69
0.1100,0.8900	-20781.41
0.1166,0.8834	-20776.28
0.1075,0.8925	-20766.54
0.1039,0.8961	-20749.26
0.1127,0.8873	-20808.49
0.1067,0.8933	-20781.37
0.0861,0.9139	-20746.24
0.1062,0.8938	-20753.70
0.1080,0.8920	-20772.91
0.0981,0.9019	-20760.56
0.1037,0.8963	-20777.28
0.1122,0.8878	-20822.97
0.0955,0.9045	-20756.63
0.1193,0.8807	-20751.04
0.1053,0.8947	-20766.47
0.1060,0.8940	-20764.34
0.1063,0.8937	-20760.10
0.1076,0.8924	-20766.55
0.1050,0.8950	-20757.90
0.1186,0.8814	-20796.88
0.0966,0.9034	-20765.33
0.1144,0.8856	-20796.24
0.1136,0.8864	-20847.53
0.1057,0.8943	-20740.85
0.1117,0.8883	-20793.99
0.0963,0.9037	-20736.31
0.1090,0.8910	-20762.46
0.1198,0.8802	-20835.04
0.1067,0.8933	-20802.62
0.0970,0.9030	-20796.46
0.1142,0.8858	-20788.02
0.1082,0.8918	-20745.50
0.1146,0.8854	-20792.17
0.0910,0.9090	-20735.03
0.1116,0.8884	-20796.06
0.1031,0.8969	-20742.74
0.1094,0.8906	-20796.06
0.1014,0.8986	-20755.77
0.1088,0.8912	-20815.02
0.0969,0.9031	-20736.24
0.0977,0.9023	-20767.30
0.1109,0.8891	-20779.40
0.1076,0.8924	-20800.40
0.1109,0.8891	-20783.56
0.1140,0.8860	-20794.15
0.1064,0.8936	-20770.74
0.1196,0.8804	-20831.03
0.1123,0.8877	-20777.47
0.1057,0.8943	-20800.63
0.1187,0.8813	-20784.88
0.1146,0.8854	-20808.53
0.1085,0.8915	-20775.04
0.1157,0.8843	-20810.63
0.1060,0.8940	-20762.21
0.1052,0.8948	-20781.45
0.1121,0.8879	-20789.87
0.1071,0.8929	-20781.36
0.1103,0.8897	-20789.78
0.1074,0.8926	-20796.18
0.1032,0.8968	-20747.07
0.1124,0.8876	-20794.02
0.1148,0.8852	-20804.45
0.1077,0.8923	-20775.01
0.1000,0.9000	-20795.42
0.1015,0.8985	-20781.93
0.1045,0.8955	-20772.92
0.1048,0.8952	-20751.46
0.1100,0.8900	-20758.41
0.1039,0.8961	-20768.65
0.1007,0.8993	-20771.15
0.1085,0.8915	-20789.78
0.0990,0.9010	-20751.57
0.1071,0.8929	-20777.12
0.1140,0.8860	-20794.15
0.1107,0.8893	-20821.05
0.1041,0.8959	-20764.34
0.1179,0.8821	-20788.70
0.0971,0.9029	-20765.22
0.1085,0.8915	-20812.95
0.1099,0.8901	-20777.22
0.1068,0.8932	-20789.87
0.1124,0.8876	-20763.03
0.1054,0.8946	-20751.50
0.1169,0.8831	-20824.88
0.1056,0.8944	-20783.56
0.0980,0.9020	-20736.16
0.1163,0.8837	-20759.97
0.1129,0.8871	-20806.43
0.0990,0.9010	-20773.65
0.1009,0.8991	-20788.62
0.1055,0.8945	-20785.71
0.1013,0.8987	-20749.23
0.0953,0.9047	-20761.18
0.1067,0.8933	-20777.12
0.1117,0.8883	-20762.88
0.1043,0.8957	-20779.38
0.0983,0.9017	-20767.18
0.0964,0.9036	-20751.96
0.1213,0.8787	-20823.26
0.0937,0.9063	-20738.98
0.1093,0.8907	-20777.18
0.1194,0.8806	-20797.04
0.1097,0.8903	-20777.21
0.1023,0.8977	-20747.05
0.1120,0.8880	-20787.79
0.0965,0.9035	-20778.78
0.1099,0.8901	-20768.86
0.1249,0.8751	-20802.52
0.1194,0.8806	-20831.02
0.0842,0.9158	-20711.46
0.0953,0.9047	-20727.42
0.1111,0.8889	-20821.00
0.1048,0.8952	-20787.92
0.1167,0.8833	-20772.26
0.1033,0.8967	-20751.39
0.1049,0.8951	-20762.18
0.1083,0.8917	-20764.49
0.0987,0.9013	-20733.92
0.1016,0.8984	-20773.20
0.1177,0.8823	-20804.77
0.0971,0.9029	-20758.52
0.1055,0.8945	-20789.98
0.1067,0.8933	-20768.62
0.0983,0.9017	-20711.77
0.1086,0.8914	-20793.99
0.1205,0.8795	-20813.21
0.1022,0.8978	-20786.16
0.1009,0.8991	-20793.00
0.1028,0.8972	-20742.72
0.0945,0.9055	-20716.21
0.1031,0.8969	-20744.90
0.1054,0.8946	-20764.33
0.1002,0.8998	-20747.08
0.1076,0.8924	-20772.89
0.1048,0.8952	-20770.76
0.1152,0.8848	-20765.76
0.0966,0.9034	-20763.09
0.0921,0.9079	-20730.18
0.1005,0.8995	-20771.18
0.1090,0.8910	-20766.67
0.0981,0.9019	-20780.53
0.1254,0.8746	-20808.53
0.1118,0.8882	-20789.85
0.0969,0.9031	-20767.49
0.1083,0.8917	-20802.44
0.0915,0.9085	-20725.72
0.0941,0.9059	-20756.99
0.1093,0.8907	-20787.67
0.1026,0.8974	-20773.07
0.0993,0.9007	-20782.42
0.1203,0.8797	-20821.13
0.1034,0.8966	-20731.96
0.1081,0.8919	-20739.15
0.0990,0.9010	-20749.37
0.1065,0.8935	-20768.62
0.0972,0.9028	-20747.36
0.1123,0.8877	-20748.54
0.0965,0.9035	-20756.42
0.1055,0.8945	-20779.30
0.1008,0.8992	-20773.32
0.1090,0.8910	-20802.38
0.0988,0.9012	-20744.96
0.1125,0.8875	-20804.36
0.1021,0.8979	-20781.82
0.1047,0.8953	-20760.04
0.0997,0.9003	-20731.70
0.1034,0.8966	-20794.59
0.1085,0.8915	-20785.57
0.1096,0.8904	-20777.20
0.1025,0.8975	-20742.71
0.1136,0.8864	-20777.68
0.0957,0.9043	-20743.12
0.1014,0.8986	-20777.59
0.1119,0.8881	-20791.92
0.0963,0.9037	-20707.20
0.1125,0.8875	-20785.76
0.1095,0.8905	-20766.72
0.1115,0.8885	-20779.46
0.1052,0.8948	-20794.29
0.1018,0.8982	-20766.64
0.1124,0.8876	-20822.96
0.1126,0.8874	-20781.65
0.1106,0.8894	-20810.64
0.1054,0.8946	-20813.51
0.1078,0.8922	-20766.56
0.1055,0.8945	-20792.12
0.1186,0.8814	-20794.87
0.1137,0.8863	-20800.28
0.1065,0.8935	-20781.38
0.1034,0.8966	-20762.20
0.0959,0.9041	-20765.52
0.1009,0.8991	-20762.36
0.1012,0.8988	-20784.18
0.1091,0.8909	-20768.77
0.1055,0.8945	-20766.47
0.1000,0.9000	-20755.88
0.1167,0.8833	-20788.45
0.0982,0.9018	-20716.19
0.1075,0.8925	-20772.89
0.1069,0.8931	-20747.40
0.1079,0.8921	-20781.35
0.0953,0.9047	-20731.93
0.1161,0.8839	-20786.31
0.0890,0.9110	-20742.62
0.1113,0.8887	-20787.74
0.1067,0.8933	-20777.12
0.1115,0.8885	-20802.28
0.0962,0.9038	-20752.00
0.1099,0.8901	-20812.78
0.1077,0.8923	-20798.27
0.1176,0.8824	-20822.89
0.1098,0.8902	-20844.18
0.1112,0.8888	-20758.63
0.1034,0.8966	-20768.68
0.1069,0.8931	-20781.37
0.1089,0.8911	-20754.04
0.1076,0.8924	-20783.47
0.1150,0.8850	-20800.39
0.1201,0.8799	-20795.23
0.1096,0.8904	-20804.44
0.1068,0.8932	-20781.37
0.1169,0.8831	-20814.77
0.1084,0.8916	-20781.36
0.1064,0.8936	-20768.61
0.1103,0.8897	-20796.04
0.0998,0.9002	-20764.70
0.1214,0.8786	-20815.36
0.1067,0.8933	-20783.50
0.1026,0.8974	-20744.88
0.1208,0.8792	-20773.55
0.1067,0.8933	-20762.25
0.1140,0.8860	-20771.59
0.1066,0.8934	-20753.74
0.1071,0.8929	-20764.40
0.1112,0.8888	-20754.49
0.1202,0.8798	-20775.34
0.1051,0.8949	-20792.17
0.0933,0.9067	-20786.79
0.1127,0.8873	-20773.41
0.0923,0.9077	-20769.00
0.1123,0.8877	-20804.36
0.1087,0.8913	-20806.61
0.1080,0.8920	-20756.02
0.0957,0.9043	-20727.39
0.1112,0.8888	-20798.13
0.1029,0.8971	-20764.38
0.1140,0.8860	-20777.74
0.1158,0.8842	-20778.10
0.1097,0.8903	-20768.83
0.0996,0.9004	-20760.32
0.1075,0.8925	-20766.54
0.1097,0.8903	-20758.37
0.1013,0.8987	-20744.86
0.1053,0.8947	-20779.31
0.1077,0.8923	-20747.52
0.1081,0.8919	-20789.79
0.1081,0.8919	-20768.70
0.1078,0.8922	-20813.05
0.1140,0.8860	-20777.74
0.1015,0.8985	-20747.04
0.1129,0.8871	-20816.73
0.1134,0.8866	-20785.87
0.1245,0.8755	-20808.23
0.1091,0.8909	-20781.37
0.1050,0.8950	-20809.32
0.0995,0.9005	-20738.31
0.1111,0.8889	-20825.16
0.1073,0.8927	-20783.48
0.1100,0.8900	-20768.87
0.1088,0.8912	-20764.54
0.1063,0.8937	-20787.77
0.0997,0.9003	-20764.72
0.1156,0.8844	-20769.92
0.1096,0.8904	-20764.63
0.0977,0.9023	-20716.17
0.1093,0.8907	-20793.97
0.1117,0.8883	-20777.40
0.1115,0.8885	-20793.98
0.1202,0.8798	-20823.12
0.1120,0.8880	-20785.72
0.1057,0.8943	-20802.77
0.1111,0.8889	-20754.47
0.1204,0.8796	-20763.48
0.1072,0.8928	-20777.12
0.1120,0.8880	-20806.43
0.1034,0.8966	-20831.31
0.1092,0.8908	-20762.48
0.0976,0.9024	-20753.98
0.1064,0.8936	-20787.77
0.1131,0.8869	-20783.78
0.1161,0.8839	-20798.47
0.1077,0.8923	-20779.24
0.1050,0.8950	-20764.33
0.1101,0.8899	-20777.24
0.1110,0.8890	-20814.77
0.1042,0.8958	-20783.70
0.1156,0.8844	-20857.43
0.1112,0.8888	-20808.52
0.1067,0.8933	-20760.12
0.1066,0.8934	-20751.62
0.1005,0.8995	-20784.32
0.1039,0.8961	-20764.34
0.1053,0.8947	-20762.19
0.1075,0.8925	-20791.94
0.1035,0.8965	-20783.78
0.0982,0.9018	-20745.02
0.1064,0.8936	-20747.34
0.0925,0.9075	-20718.68
0.1068,0.8932	-20758.01
0.1233,0.8767	-20835.37
0.1016,0.8984	-20779.74
0.1116,0.8884	-20758.71
0.1103,0.8897	-20764.74
0.0982,0.9018	-20771.64
0.1135,0.8865	-20750.93
0.1090,0.8910	-20785.57
0.1027,0.8973	-20786.07
0.1109,0.8891	-20796.05
0.1080,0.8920	-20768.68
0.1213,0.8787	-20860.88
0.1114,0.8886	-20762.83
0.1022,0.8978	-20781.81
0.0989,0.9011	-20760.43
0.0960,0.9040	-20752.03
0.1044,0.8956	-20785.83
0.1124,0.8876	-20818.82
0.1051,0.8949	-20764.33
0.1029,0.8971	-20755.72
0.1010,0.8990	-20755.79
0.1105,0.8895	-20793.96
0.0937,0.9063	-20754.86
0.1052,0.8948	-20770.75
0.1161,0.8839	-20749.77
0.1255,0.8745	-20816.31
0.1105,0.8895	-20777.28
0.1178,0.8822	-20816.86
0.1155,0.8845	-20814.69
0.1106,0.8894	-20752.26
0.1008,0.8992	-20751.44
0.1093,0.8907	-20796.06
0.1022,0.8978	-20753.56
0.1158,0.8842	-20749.66
0.1044,0.8956	-20768.63
0.1023,0.8977	-20764.42
0.1008,0.8992	-20758.00
0.1062,0.8938	-20764.35
0.0941,0.9059	-20754.74
0.1192,0.8808	-20787.01
0.1153,0.8847	-20790.22
0.0893,0.9107	-20768.06
0.1146,0.8854	-20798.31
0.1061,0.8939	-20794.18
0.1108,0.8892	-20800.21
0.1069,0.8931	-20762.26
0.1182,0.8818	-20804.84
0.1011,0.8989	-20753.61
0.1129,0.8871	-20759.02
0.0994,0.9006	-20731.70
0.1076,0.8924	-20760.20
0.1004,0.8996	-20742.69
0.1100,0.8900	-20793.96
0.1083,0.8917	-20762.39
0.1038,0.8962	-20794.53
0.1223,0.8777	-20831.30
0.1109,0.8891	-20781.47
0.1045,0.8955	-20734.25
0.1162,0.8838	-20800.52
0.1076,0.8924	-20798.28
0.0938,0.9062	-20750.28
0.1075,0.8925	-20766.54
0.1093,0.8907	-20739.42
0.1101,0.8899	-20806.49
0.1108,0.8892	-20793.96
0.0965,0.9035	-20792.21
0.1066,0.8934	-20766.50
0.1126,0.8874	-20789.90
0.1080,0.8920	-20808.80
0.1012,0.8988	-20786.36
0.1077,0.8923	-20789.81
0.1081,0.8919	-20756.03
0.1174,0.8826	-20760.36
0.1176,0.8824	-20808.78
0.1032,0.8968	-20755.72
0.1202,0.8798	-20819.13
0.1098,0.8902	-20783.49
0.1180,0.8820	-20808.83
0.1083,0.8917	-20732.87
0.1219,0.8781	-20841.12
0.1114,0.8886	-20762.84
0.1259,0.8741	-20798.97
0.0976,0.9024	-20747.31
0.1056,0.8944	-20770.74
0.1058,0.8942	-20789.95
0.1023,0.8977	-20744.88
0.1008,0.8992	-20753.62
0.1160,0.8840	-20757.83
0.0945,0.9055	-20761.42
0.0893,0.9107	-20716.98
0.1068,0.8932	-20764.38
0.1190,0.8810	-20786.94
0.1163,0.8837	-20806.62
0.1147,0.8853	-20786.06
0.1040,0.8960	-20755.72
0.1168,0.8832	-20828.92
0.0958,0.9042	-20756.56
0.1046,0.8954	-20770.77
0.1182,0.8818	-20798.82
0.1037,0.8963	-20783.76
0.1221,0.8779	-20827.32
0.1110,0.8890	-20800.21
0.1000,0.9000	-20773.45
0.1040,0.8960	-20755.72
0.1064,0.8936	-20785.64
0.1190,0.8810	-20752.93
0.1114,0.8886	-20781.52
0.1107,0.8893	-20768.96
0.0961,0.9039	-20738.56
0.1001,0.8999	-20751.48
0.1135,0.8865	-20779.72
0.1155,0.8845	-20788.22
0.1179,0.8821	-20782.65
0.1053,0.8947	-20764.33
0.1063,0.8937	-20736.68
0.1069,0.8931	-20789.86
0.1037,0.8963	-20766.50
0.1174,0.8826	-20770.44
0.1032,0.8968	-20803.28
0.1083,0.8917	-20760.27
0.1075,0.8925	-20762.31
0.1043,0.8957	-20727.78
0.1096,0.8904	-20743.68
0.1119,0.8881	-20781.56
0.1073,0.8927	-20798.31
0.1098,0.8902	-20804.42
0.1030,0.8970	-20768.70
0.1172,0.8828	-20800.66
0.1105,0.8895	-20791.87
0.1035,0.8965	-20772.99
0.1067,0.8933	-20741.00
0.1180,0.8820	-20820.90
0.1099,0.8901	-20793.96
0.1181,0.8819	-20778.70
0.1070,0.8930	-20768.63
0.1000,0.9000	-20755.88
0.1121,0.8879	-20756.76
0.1080,0.8920	-20766.57
0.1009,0.8991	-20738.31
0.0985,0.9015	-20756.07
0.1156,0.8844	-20796.38
0.0943,0.9057	-20781.83
0.1091,0.8909	-20810.77
0.0923,0.9077	-20757.58
0.1119,0.8881	-20785.71
0.1187,0.8813	-20792.90
0.1112,0.8888	-20777.34
0.1037,0.8963	-20751.41
0.0988,0.9012	-20764.86
0.1038,0.8962	-20768.65
0.1177,0.8823	-20804.76
0.1074,0.8926	-20747.48
0.1152,0.8848	-20792.25
0.1086,0.8914	-20749.78
0.0982,0.9018	-20733.93
0.1154,0.8846	-20794.31
0.1107,0.8893	-20781.46
0.1010,0.8990	-20779.85
0.1095,0.8905	-20747.85
0.1098,0.8902	-20791.87
0.0949,0.9051	-20743.25
0.1206,0.8794	-20827.14
0.0944,0.9056	-20754.65
0.0952,0.9048	-20731.94
0.1134,0.8866	-20798.21
0.1041,0.8959	-20740.66
0.1025,0.8975	-20764.41
0.1184,0.8816	-20786.81
0.1065,0.8935	-20775.00
0.1004,0.8996	-20744.88
0.1245,0.8755	-20814.09
0.1057,0.8943	-20762.20
0.1028,0.8972	-20775.22
0.1075,0.8925	-20802.52
0.1212,0.8788	-20789.57
0.1001,0.8999	-20762.46
0.1124,0.8876	-20798.16
0.1179,0.8821	-20754.49
0.1079,0.8921	-20766.56
0.1064,0.8936	-20760.11
0.1244,0.8756	-20802.37
0.1068,0.8932	-20789.87
0.1008,0.8992	-20758.00
0.1080,0.8920	-20794.02
0.1117,0.8883	-20802.28
0.1107,0.8893	-20821.04
0.1024,0.8976	-20760.07
0.1012,0.8988	-20751.42
0.1013,0.8987	-20760.14
0.0998,0.9002	-20780.09
0.1091,0.8909	-20793.97
0.1053,0.8947	-20760.05
0.0971,0.9029	-20771.91
0.1056,0.8944	-20770.74
0.0969,0.9031	-20765.27
0.1076,0.8924	-20770.78
0.1225,0.8775	-20854.95
0.1159,0.8841	-20794.39
0.1003,0.8997	-20773.41
0.1108,0.8892	-20754.39
0.0964,0.9036	-20767.63
0.1014,0.8986	-20751.41
0.1211,0.8789	-20793.50
0.1198,0.8802	-20793.15
0.1016,0.8984	-20760.12
0.1142,0.8858	-20810.56
0.1115,0.8885	-20781.53
0.1108,0.8892	-20789.80
0.1079,0.8921	-20781.35
0.1074,0.8926	-20736.89
0.1247,0.8753	-20823.88
0.1150,0.8850	-20796.30
0.1112,0.8888	-20754.47
0.1005,0.8995	-20766.80
0.1151,0.8849	-20751.45
0.0993,0.9007	-20758.16
0.1139,0.8861	-20775.67
0.1079,0.8921	-20789.80
0.1006,0.8994	-20760.21
0.1094,0.8906	-20773.00
0.1267,0.8733	-20839.82
0.1024,0.8976	-20753.56
0.1086,0.8914	-20798.20
0.0920,0.9080	-20748.51
0.1177,0.8823	-20804.77
0.1231,0.8769	-20831.42
0.1056,0.8944	-20747.25
0.1052,0.8948	-20792.15
0.1092,0.8908	-20762.49
0.1073,0.8927	-20783.48
0.1013,0.8987	-20760.14
0.1189,0.8811	-20776.91
0.1023,0.8977	-20744.87
0.1071,0.8929	-20760.16
0.1023,0.8977	-20786.15
0.1008,0.8992	-20768.94
0.0979,0.9021	-20745.05
0.1138,0.8862	-20802.34
0.1134,0.8866	-20769.42
0.1107,0.8893	-20748.13
0.1062,0.8938	-20792.04
0.1142,0.8858	-20757.31
0.1113,0.8887	-20783.59
0.1050,0.8950	-20760.04
0.1225,0.8775	-20847.08
0.0997,0.9003	-20806.54
0.1019,0.8981	-20740.51
0.1140,0.8860	-20759.29
0.1078,0.8922	-20791.92
0.1257,0.8743	-20781.47
0.1126,0.8874	-20804.36
0.0954,0.9046	-20770.16
0.1046,0.8954	-20781.51
0.1113,0.8887	-20746.18
0.1162,0.8838	-20782.27
0.1199,0.8801	-20829.06
0.1104,0.8896	-20775.17
0.1001,0.8999	-20793.20
0.1037,0.8963	-20766.50
0.0950,0.9050	-20734.23
0.1194,0.8806	-20783.06
0.1257,0.8743	-20829.94
0.1055,0.8945	-20783.57
0.1093,0.8907	-20798.16
0.1033,0.8967	-20770.84
0.1149,0.8851	-20786.08
0.1120,0.8880	-20806.43
0.1195,0.8805	-20852.99
0.0980,0.9020	-20767.24
0.1077,0.8923	-20781.35
0.1019,0.8981	-20790.58
0.1125,0.8875	-20773.37
0.1107,0.8893	-20798.13
0.1086,0.8914	-20796.10
0.1112,0.8888	-20802.29
0.1029,0.8971	-20775.21
0.1078,0.8922	-20796.15
0.1281,0.8719	-20784.49
0.1048,0.8952	-20783.64
0.0995,0.9005	-20777.96
0.0986,0.9014	-20760.47
0.1086,0.8914	-20791.88
0.1164,0.8836	-20782.29
0.1028,0.8972	-20757.89
0.1068,0.8932	-20743.15
0.0961,0.9039	-20731.84
0.1031,0.8969	-20783.84
0.0927,0.9073	-20759.72
0.1094,0.8906	-20779.29
0.1031,0.8969	-20777.35
0.0988,0.9012	-20762.65
0.0989,0.9011	-20791.35
0.0918,0.9082	-20721.09
0.0943,0.9057	-20698.13
0.1051,0.8949	-20747.19
0.1110,0.8890	-20741.96
0.1172,0.8828	-20774.40
0.1130,0.8870	-20756.98
0.1029,0.8971	-20799.03
0.1074,0.8926	-20777.12
0.1033,0.8967	-20777.33
0.1010,0.8990	-20747.05
0.1127,0.8873	-20785.79
0.1159,0.8841	-20784.23
0.0982,0.9018	-20753.89
0.1219,0.8781	-20773.98
0.0939,0.9061	-20748.00
0.0946,0.9054	-20738.80
0.1086,0.8914	-20793.99
0.1079,0.8921	-20813.05
0.1027,0.8973	-20757.89
0.1064,0.8936	-20745.20
0.1061,0.8939	-20785.66
0.1086,0.8914	-20764.52
0.1010,0.8990	-20740.49
0.1148,0.8852	-20828.96
0.1080,0.8920	-20781.35
0.1084,0.8916	-20760.28
0.0998,0.9002	-20782.30
0.1128,0.8872	-20806.42
0.0999,0.9001	-20766.87
0.1163,0.8837	-20782.29
0.1068,0.8932	-20777.12
0.1041,0.8959	-20770.79
0.1100,0.8900	-20787.68
0.1014,0.8986	-20766.68
0.1088,0.8912	-20781.36
0.1124,0.8876	-20783.69
0.1037,0.8963	-20740.62
0.1094,0.8906	-20814.93
0.0986,0.9014	-20778.18
0.1007,0.8993	-20758.01
0.1057,0.8943	-20728.03
0.1109,0.8891	-20793.96
0.1117,0.8883	-20791.91
0.0945,0.9055	-20747.85
0.1027,0.8973	-20764.40
0.1219,0.8781	-20807.56
0.1017,0.8983	-20742.69
0.1037,0.8963	-20764.35
0.0964,0.9036	-20740.76
0.1095,0.8905	-20785.58
0.0991,0.9009	-20751.57
0.1112,0.8888	-20769.02
0.1064,0.8936	-20760.11
0.1006,0.8994	-20736.11
0.1090,0.8910	-20789.77
0.1194,0.8806	-20797.05
0.1061,0.8939	-20781.40
0.0860,0.9140	-20706.12
0.1135,0.8865	-20833.16
0.1082,0.8918	-20794.01
0.1235,0.8765	-20823.64
0.1067,0.8933	-20809.00
0.0951,0.9049	-20754.49
0.0993,0.9007	-20749.34
0.1079,0.8921	-20787.69
0.1129,0.8871	-20798.18
0.1172,0.8828	-20810.75
0.0995,0.9005	-20760.34
0.1078,0.8922	-20791.92
0.1170,0.8830	-20776.37
0.0942,0.9058	-20738.87
0.0962,0.9038	-20760.96
0.1178,0.8822	-20816.86
0.1137,0.8863	-20818.76
0.1034,0.8966	-20749.24
0.1064,0.8936	-20770.74
0.0876,0.9124	-20703.37
0.0996,0.9004	-20740.51
0.1039,0.8961	-20764.34
0.1194,0.8806	-20823.03
0.1054,0.8946	-20787.86
0.1013,0.8987	-20777.61
0.0924,0.9076	-20700.42
0.1096,0.8904	-20773.01
0.1032,0.8968	-20723.28
0.1115,0.8885	-20783.60
0.1091,0.8909	-20789.77
0.0993,0.9007	-20758.16
0.0957,0.9043	-20736.38
0.1142,0.8858	-20796.22
0.1151,0.8849	-20828.95
0.0945,0.9055	-20772.70
0.1176,0.8824	-20790.63
0.0961,0.9039	-20754.25
0.1098,0.8902	-20760.47
0.1097,0.8903	-20789.77
0.1075,0.8925	-20760.19
0.1004,0.8996	-20747.07
0.1068,0.8932	-20804.74
0.0963,0.9037	-20760.93
0.1053,0.8947	-20747.21
0.1192,0.8808	-20811.00
0.1210,0.8790	-20783.56
0.1009,0.8991	-20764.56
0.1074,0.8926	-20762.30
0.1138,0.8862	-20787.97
0.1064,0.8936	-20772.87
0.1062,0.8938	-20792.04
0.1079,0.8921	-20749.67
0.0996,0.9004	-20762.53
0.1117,0.8883	-20816.80
0.1160,0.8840	-20780.18
0.1039,0.8961	-20772.96
0.1086,0.8914	-20783.47
0.1113,0.8887	-20779.43
0.0910,0.9090	-20718.93
0.0882,0.9118	-20749.94
0.1085,0.8915	-20785.57
0.1240,0.8760	-20823.74
0.1055,0.8945	-20775.02
0.1026,0.8974	-20731.87
0.1023,0.8977	-20744.87
0.0953,0.9047	-20729.67
0.1090,0.8910	-20785.57
0.1100,0.8900	-20816.96
0.0977,0.9023	-20725.07
0.0990,0.9010	-20742.74
0.1080,0.8920	-20777.13
0.1004,0.8996	-20758.04
0.1208,0.8792	-20847.01
0.1143,0.8857	-20743.01
0.1188,0.8812	-20780.90
0.1060,0.8940	-20807.00
0.1097,0.8903	-20745.81
0.0970,0.9030	-20731.78
0.1126,0.8874	-20820.87
0.0969,0.9031	-20754.11
0.1082,0.8918	-20777.13
0.0962,0.9038	-20722.87
0.1121,0.8879	-20806.42
0.1101,0.8899	-20775.15
0.1136,0.8864	-20767.41
0.1033,0.8967	-20764.36
0.1024,0.8976	-20781.78
0.0936,0.9064	-20752.62
0.1085,0.8915	-20779.25
0.1113,0.8887	-20823.06
0.1023,0.8977	-20764.42
0.1033,0.8967	-20788.14
0.1029,0.8971	-20773.04
0.1181,0.8819	-20794.77
0.1102,0.8898	-20779.34
0.1136,0.8864	-20806.44
0.1026,0.8974	-20757.90
0.1059,0.8941	-20804.88
0.1005,0.8995	-20744.88
0.1009,0.8991	-20782.06
0.1024,0.8976	-20773.10
0.1214,0.8786	-20801.49
0.1114,0.8886	-20762.82
0.1048,0.8952	-20770.76
0.1058,0.8942	-20789.95
0.1067,0.8933	-20766.50
0.1080,0.8920	-20772.91
0.1131,0.8869	-20785.84
0.1071,0.8929	-20766.52
0.0923,0.9077	-20759.87
0.1060,0.8940	-20796.34
0.1095,0.8905	-20747.85
0.1051,0.8949	-20790.03
0.1129,0.8871	-20787.87
0.1003,0.8997	-20766.82
0.0984,0.9016	-20733.93
0.1043,0.8957	-20729.93
0.1112,0.8888	-20789.81
0.0998,0.9002	-20718.51
0.1225,0.8775	-20803.77
0.1055,0.8945	-20738.68
0.1117,0.8883	-20808.50
0.1075,0.8925	-20753.84
0.1041,0.8959	-20781.55
0.1038,0.8962	-20736.32
0.1204,0.8796	-20773.43
0.0977,0.9023	-20793.98
0.1134,0.8866	-20804.38
0.0985,0.9015	-20771.56
0.1011,0.8989	-20771.09
0.0997,0.9003	-20766.92
0.1096,0.8904	-20789.77
0.0996,0.9004	-20773.53
0.1179,0.8821	-20812.85
0.1085,0.8915	-20779.25
0.0968,0.9032	-20729.55
0.1118,0.8882	-20733.89
0.1053,0.8947	-20738.66
0.1101,0.8899	-20760.53
0.1181,0.8819	-20806.83
0.1026,0.8974	-20738.38
0.1001,0.8999	-20764.65
0.0981,0.9019	-20740.59
0.1100,0.8900	-20793.96
0.1064,0.8936	-20751.60
0.1084,0.8916	-20775.03
0.1186,0.8814	-20818.95
0.1072,0.8928	-20772.88
0.1119,0.8881	-20769.14
0.1055,0.8945	-20787.84
0.1062,0.8938	-20792.05
0.1019,0.8981	-20779.69
0.1093,0.8907	-20766.69
0.1121,0.8879	-20754.68
0.1263,0.8737	-20797.20
0.1020,0.8980	-20768.80
0.1023,0.8977	-20783.97
0.1045,0.8955	-20760.03
0.0981,0.9019	-20745.03
0.1015,0.8985	-20792.83
0.1201,0.8799	-20793.23
0.1160,0.8840	-20788.32
0.1045,0.8955	-20777.22
0.1101,0.8899	-20752.17
0.1050,0.8950	-20747.18
0.0991,0.9009	-20751.56
0.1056,0.8944	-20760.06
0.1208,0.8792	-20787.47
0.1070,0.8930	-20772.88
0.1014,0.8986	-20766.68
0.1127,0.8873	-20802.30
0.1080,0.8920	-20802.46
0.1104,0.8896	-20806.48
0.1226,0.8774	-20774.28
0.1056,0.8944	-20824.15
0.0972,0.9028	-20731.76
0.1037,0.8963	-20813.95
0.1038,0.8962	-20764.34
0.1067,0.8933	-20783.50
0.1079,0.8921	-20775.02
0.1136,0.8864	-20798.22
0.1032,0.8968	-20770.85
0.1059,0.8941	-20792.08
0.1060,0.8940	-20798.46
0.1041,0.8959	-20805.24
0.1037,0.8963	-20742.78
0.1036,0.8964	-20794.57
0.1135,0.8865	-20781.77
0.1027,0.8973	-20773.07
0.1127,0.8873	-20808.49
0.1025,0.8975	-20792.62
0.1202,0.8798	-20773.34
0.1053,0.8947	-20781.45
0.1126,0.8874	-20833.26
0.1082,0.8918	-20800.34
0.0993,0.9007	-20755.95
0.1084,0.8916	-20739.21
0.1142,0.8858	-20790.07
0.1100,0.8900	-20768.86
0.1173,0.8827	-20766.37
0.1106,0.8894	-20777.28
0.1018,0.8982	-20760.11
0.1099,0.8901	-20789.77
0.1182,0.8818	-20774.71
0.0987,0.9013	-20736.13
0.1219,0.8781	-20787.81
0.0912,0.9088	-20741.89
0.1101,0.8899	-20787.69
0.1142,0.8858	-20790.07
0.1121,0.8879	-20767.10
0.1046,0.8954	-20807.28
0.1056,0.8944	-20779.29
0.1017,0.8983	-20762.29
0.1036,0.8964	-20712.56
0.1078,0.8922	-20772.90
0.1060,0.8940	-20762.21
0.0966,0.9034	-20731.80
0.1183,0.8817	-20778.74
0.1143,0.8857	-20804.42
0.1040,0.8960	-20777.26
0.1015,0.8985	-20771.03
0.1065,0.8935	-20762.24
0.1150,0.8850	-20761.62
0.1220,0.8780	-20823.36
0.1102,0.8898	-20800.22
0.1069,0.8931	-20753.77
0.0973,0.9027	-20740.66
0.1061,0.8939	-20768.61
0.1114,0.8886	-20798.13
0.1042,0.8958	-20757.88
0.1140,0.8860	-20790.05
0.1113,0.8887	-20793.98
0.1116,0.8884	-20767.02
0.1159,0.8841	-20804.55
0.1233,0.8767	-20821.63
0.1064,0.8936	-20749.47
0.1143,0.8857	-20781.89
0.1062,0.8938	-20762.22
0.1042,0.8958	-20753.58
0.1082,0.8918	-20808.78
0.1087,0.8913	-20775.05
0.1101,0.8899	-20806.50
0.1047,0.8953	-20753.60
0.1071,0.8929	-20791.97
0.1143,0.8857	-20775.76
0.0948,0.9052	-20747.80
0.1183,0.8817	-20770.71
0.1068,0.8932	-20785.62
0.1056,0.8944	-20783.57
0.1063,0.8937	-20762.23
0.1117,0.8883	-20798.14
0.0902,0.9098	-20749.15
0.0919,0.9081	-20718.78
0.1068,0.8932	-20766.50
0.1041,0.8959	-20775.10
0.1020,0.8980	-20768.80
0.1022,0.8978	-20747.04
0.1055,0.8945	-20783.57
0.1030,0.8970	-20807.67
0.1240,0.8760	-20853.06
0.1050,0.8950	-20783.61
0.0986,0.9014	-20733.92
0.1015,0.8985	-20803.74
0.1183,0.8817	-20822.93
0.1170,0.8830	-20768.28
0.1133,0.8867	-20763.23
0.0975,0.9025	-20778.48
0.1055,0.8945	-20783.57
0.1032,0.8968	-20751.39
0.1149,0.8851	-20802.41
0.0986,0.9014	-20784.80
0.1057,0.8943	-20777.15
0.1054,0.8946	-20777.16
0.1085,0.8915	-20775.04
0.1097,0.8903	-20777.21
0.1129,0.8871	-20812.61
0.1215,0.8785	-20801.53
0.1107,0.8893	-20796.04
0.1129,0.8871	-20800.24
0.1090,0.8910	-20760.36
0.1147,0.8853	-20784.01
0.1073,0.8927	-20781.36
0.1152,0.8848	-20800.41
0.1223,0.8777	-20811.58
0.1021,0.8979	-20790.52
0.1072,0.8928	-20775.00
0.1242,0.8758	-20812.05
0.1012,0.8988	-20742.68
0.0989,0.9011	-20738.33
0.1178,0.8822	-20796.72
0.1154,0.8846	-20810.61
0.1129,0.8871	-20814.67
0.1045,0.8955	-20796.55
0.1042,0.8958	-20785.85
0.0888,0.9112	-20759.00
0.1160,0.8840	-20814.71
0.1080,0.8920	-20817.25
0.1079,0.8921	-20760.23
0.1096,0.8904	-20791.87
0.1082,0.8918	-20789.79
0.0995,0.9005	-20731.70
0.1046,0.8954	-20725.69
0.1057,0.8943	-20760.07
0.0974,0.9026	-20745.10
0.1211,0.8789	-20783.57
0.1145,0.8855	-20794.20
0.0926,0.9074	-20741.49
0.1029,0.8971	-20783.87
0.1010,0.8990	-20773.28
0.0943,0.9057	-20702.65
0.1076,0.8924	-20755.97
0.1097,0.8903	-20787.68
0.1085,0.8915	-20768.72
0.0991,0.9009	-20740.53
0.1031,0.8969	-20773.02
0.1035,0.8965	-20781.63
0.1024,0.8976	-20760.07
0.1028,0.8972	-20747.06
0.1072,0.8928	-20789.84
0.0976,0.9024	-20765.10
0.1106,0.8894	-20793.96
0.1131,0.8869	-20798.19
0.1011,0.8989	-20760.16
0.1015,0.8985	-20753.59
0.1062,0.8938	-20792.05
0.1198,0.8802	-20835.04
0.1101,0.8899	-20752.17
0.1060,0.8940	-20787.80
0.1006,0.8994	-20742.68
0.0988,0.9012	-20747.18
0.1096,0.8904	-20747.87
0.1199,0.8801	-20809.13
0.1051,0.8949	-20775.04
0.1092,0.8908	-20789.77
0.1070,0.8930	-20745.29
0.1080,0.8920	-20760.24
0.1018,0.8982	-20753.58
0.1273,0.8727	-20795.68
0.0971,0.9029	-20705.00
0.0958,0.9042	-20734.12
0.1131,0.8869	-20789.95
0.1106,0.8894	-20777.28
0.0979,0.9021	-20742.83
0.1066,0.8934	-20760.12
0.0977,0.9023	-20785.09
0.0990,0.9010	-20769.24
0.1224,0.8776	-20813.58
0.1151,0.8849	-20802.44
0.1098,0.8902	-20804.42
0.1119,0.8881	-20738.06
0.1032,0.8968	-20757.88
0.1059,0.8941	-20760.07
0.1165,0.8835	-20804.61
0.1234,0.8766	-20786.35
0.1055,0.8945	-20785.71
